sep=;
ACCELEROMETER X (m/s²);ACCELEROMETER Y (m/s²);ACCELEROMETER Z (m/s²);GRAVITY X (m/s²);GRAVITY Y (m/s²);GRAVITY Z (m/s²);LINEAR ACCELERATION X (m/s²);LINEAR ACCELERATION Y (m/s²);LINEAR ACCELERATION Z (m/s²);GYROSCOPE X (rad/s);GYROSCOPE Y (rad/s);GYROSCOPE Z (rad/s);LIGHT (lux);MAGNETIC FIELD X (μT);MAGNETIC FIELD Y (μT);MAGNETIC FIELD Z (μT);ORIENTATION Z (azimuth °);ORIENTATION X (pitch °);ORIENTATION Y (roll °);PROXIMITY (i);SOUND LEVEL (dB);LOCATION Latitude : ;LOCATION Longitude : ;LOCATION Altitude ( m);LOCATION Altitude-google ( m);LOCATION Speed ( Kmh);LOCATION Accuracy ( m);LOCATION ORIENTATION (°);Satellites in range;Time since start in ms ;YYYY-MO-DD HH-MI-SS_SSS
5.976;6.435;8.887;3.5685;4.0316;8.1993;2.5606;1.4846;0.9943;0.2266;-1.4963;-1.0753;748.4956;23.75;-1.56;-31.0;275.93;-21.24;-18.68;0.4;50.037;12.84161;77.66418;678.39;3046.691378646719;0.0;30.64516;0.0;7 / 22;107;2016-11-30 16:02:48:844
5.976;6.435;8.887;3.6502;4.086;8.1448;2.329;2.3427;0.7355;0.2394;-1.5531;-1.0805;748.4956;23.56;-2.12;-31.0;279.78;-24.27;-23.52;0.4;50.037;12.84161;77.66418;678.39;3046.691378646719;0.0;30.64516;0.0;7 / 22;111;2016-11-30 16:02:48:848
5.976;6.435;8.887;3.6502;4.086;8.1448;2.329;2.3427;0.7355;0.2394;-1.5531;-1.0805;748.4956;23.56;-2.12;-31.0;279.78;-24.27;-23.52;0.4;50.037;12.84161;77.66418;678.39;3046.691378646719;0.0;30.64516;0.0;7 / 22;116;2016-11-30 16:02:48:853
5.976;6.435;8.275;3.6502;4.086;8.1448;2.329;2.3427;0.7355;0.2389;-1.5438;-1.0739;748.4956;23.56;-2.12;-31.0;279.78;-24.27;-23.52;0.4;50.037;12.84161;77.66418;678.39;3046.691378646719;0.0;30.64516;0.0;7 / 22;121;2016-11-30 16:02:48:858
6.436;6.59;8.275;3.6502;4.086;8.1448;2.329;2.3427;0.7355;0.2389;-1.5438;-1.0739;748.4956;23.56;-2.12;-31.0;279.78;-24.27;-23.52;0.4;50.037;12.84161;77.66418;678.39;3046.691378646719;0.0;30.64516;0.0;7 / 22;126;2016-11-30 16:02:48:863
6.436;6.59;8.275;3.8;4.195;8.0086;2.4789;2.3971;0.4222;0.2356;-1.5165;-1.0205;748.4956;23.19;-2.5;-30.56;279.78;-24.27;-23.52;0.4;50.037;12.84161;77.66418;678.39;3046.691378646719;0.0;30.64516;0.0;7 / 22;131;2016-11-30 16:02:48:868
6.436;6.59;8.275;3.8;4.195;8.0086;2.4789;2.3971;0.4222;0.2356;-1.5165;-1.0205;748.4956;23.19;-2.5;-30.56;279.78;-24.27;-23.52;0.4;50.037;12.84161;77.66418;678.39;3046.691378646719;0.0;30.64516;0.0;7 / 22;137;2016-11-30 16:02:48:874
4.75;5.363;5.669;3.8;4.195;8.0086;2.4789;2.3971;0.4222;0.2356;-1.5165;-1.0205;748.4956;23.19;-2.5;-30.56;279.78;-24.27;-23.52;0.4;50.037;12.84161;77.66418;678.39;3046.691378646719;0.0;30.64516;0.0;7 / 22;142;2016-11-30 16:02:48:879
4.75;5.363;5.669;3.9498;4.304;7.886;1.2531;1.5118;-1.757;0.2378;-1.3693;-0.8838;748.4956;22.13;-2.87;-30.94;278.97;-25.33;-25.38;0.4;50.037;12.84161;77.66418;678.39;3046.691378646719;0.0;30.64516;0.0;7 / 22;146;2016-11-30 16:02:48:883
4.75;5.363;5.669;3.9498;4.304;7.886;1.2531;1.5118;-1.757;0.2378;-1.3693;-0.8838;748.4956;22.13;-2.87;-30.94;278.97;-25.33;-25.38;0.4;50.037;12.84161;77.66418;678.39;3046.691378646719;0.0;30.64516;0.0;7 / 22;152;2016-11-30 16:02:48:889
3.984;6.129;7.968;3.9498;4.304;7.886;1.2531;1.5118;-1.757;0.2378;-1.3693;-0.8838;748.4956;22.13;-2.87;-30.94;278.97;-25.33;-25.38;0.4;50.037;12.84161;77.66418;678.39;3046.691378646719;0.0;30.64516;0.0;7 / 22;157;2016-11-30 16:02:48:894
3.984;6.129;7.968;3.9498;4.304;7.886;1.2531;1.5118;-1.757;0.2378;-1.3693;-0.8838;748.4956;22.13;-2.87;-30.94;278.97;-25.33;-25.38;0.4;50.037;12.84161;77.66418;678.39;3046.691378646719;0.0;30.64516;0.0;7 / 22;162;2016-11-30 16:02:48:899
3.984;6.129;7.968;3.9498;4.304;7.886;1.2531;1.5118;-1.757;0.2378;-1.3693;-0.8838;748.4956;22.13;-2.87;-30.94;278.97;-25.33;-25.38;0.4;50.037;12.84161;77.66418;678.39;3046.691378646719;0.0;30.64516;0.0;7 / 22;167;2016-11-30 16:02:48:904
4.597;4.137;6.895;4.1269;4.4674;7.6954;0.0;-0.0272;-0.1907;0.2217;-1.2989;-0.9136;748.4956;21.06;-3.37;-31.56;278.97;-25.33;-25.38;0.4;50.037;12.84161;77.66418;678.39;3046.691378646719;0.0;30.64516;0.0;7 / 22;172;2016-11-30 16:02:48:909
4.597;4.137;6.895;4.1269;4.4674;7.6954;0.0;-0.0272;-0.1907;0.2217;-1.2989;-0.9136;748.4956;21.06;-3.37;-31.56;278.97;-25.33;-25.38;0.4;50.037;12.84161;77.66418;678.39;3046.691378646719;0.0;30.64516;0.0;7 / 22;177;2016-11-30 16:02:48:914
4.597;4.137;6.895;4.1269;4.4674;7.6954;0.0;-0.0272;-0.1907;0.2217;-1.2989;-0.9136;748.4956;21.06;-3.37;-31.56;278.97;-25.33;-25.38;0.4;50.037;12.84161;77.66418;678.39;3046.691378646719;0.0;30.64516;0.0;7 / 22;182;2016-11-30 16:02:48:919
4.598;3.372;4.904;4.1269;4.4674;7.6954;0.0;-0.0272;-0.1907;0.2217;-1.2989;-0.9136;748.4956;21.06;-3.37;-31.56;278.97;-25.33;-25.38;0.4;50.037;12.84161;77.66418;678.39;3046.691378646719;0.0;30.64516;0.0;7 / 22;187;2016-11-30 16:02:48:924
4.598;3.372;4.904;4.1814;4.5083;7.6409;0.4086;-1.4437;-2.2746;0.1808;-1.2528;-0.8773;748.4956;20.25;-3.87;-31.94;278.64;-27.09;-28.2;0.4;50.037;12.84161;77.66418;678.39;3046.691378646719;0.0;30.64516;0.0;7 / 22;192;2016-11-30 16:02:48:929
4.598;3.372;4.904;4.1814;4.5083;7.6409;0.4086;-1.4437;-2.2746;0.1808;-1.2528;-0.8773;748.4956;20.25;-3.87;-31.94;278.64;-27.09;-28.2;0.4;50.037;12.84161;77.66418;678.39;3046.691378646719;0.0;30.64516;0.0;7 / 22;197;2016-11-30 16:02:48:934
4.443;5.209;5.516;4.2359;4.5627;7.5864;0.2043;-0.1226;-2.0703;0.1364;-1.1353;-0.7895;748.4956;20.0;-4.25;-31.81;278.64;-27.09;-28.2;0.4;50.037;12.84161;77.66418;678.39;3046.691378646719;0.0;30.64516;0.0;7 / 22;202;2016-11-30 16:02:48:939
4.443;5.209;5.516;4.2359;4.5627;7.5864;0.2043;-0.1226;-2.0703;0.1364;-1.1353;-0.7895;748.4956;20.0;-4.25;-31.81;278.64;-27.09;-28.2;0.4;50.037;12.84161;77.66418;678.39;3046.691378646719;0.0;30.64516;0.0;7 / 22;206;2016-11-30 16:02:48:943
4.443;5.209;5.516;4.2359;4.5627;7.5864;0.2043;-0.1226;-2.0703;0.1364;-1.1353;-0.7895;748.4956;20.0;-4.25;-31.81;278.64;-27.09;-28.2;0.4;50.037;12.84161;77.66418;678.39;3046.691378646719;0.0;30.64516;0.0;7 / 22;211;2016-11-30 16:02:48:948
4.443;5.209;5.516;4.2359;4.5627;7.5864;0.2043;-0.1226;-2.0703;0.1364;-1.1353;-0.7895;748.4956;20.0;-4.25;-31.81;278.64;-27.09;-28.2;0.4;50.037;12.84161;77.66418;678.39;3046.691378646719;0.0;30.64516;0.0;7 / 22;216;2016-11-30 16:02:48:953
2.911;7.661;-0.612;4.3312;4.6445;7.4774;1.185;1.1713;-4.2631;0.108;-1.1064;-0.7461;748.4956;18.94;-3.94;-33.06;278.64;-27.09;-28.2;0.4;50.037;12.84161;77.66418;678.39;3046.691378646719;0.0;30.64516;0.0;7 / 22;222;2016-11-30 16:02:48:959
2.911;7.661;-0.612;4.3312;4.6445;7.4774;1.185;1.1713;-4.2631;0.108;-1.1064;-0.7461;748.4956;18.94;-3.94;-33.06;278.64;-27.09;-28.2;0.4;50.037;12.84161;77.66418;678.39;3046.691378646719;0.0;30.64516;0.0;7 / 22;227;2016-11-30 16:02:48:964
2.911;7.661;-0.612;4.4402;4.7262;7.3549;-1.2258;1.5527;-7.3549;0.2255;-1.2866;-0.7518;748.4956;18.44;-3.62;-33.87;280.65;-28.26;-30.08;0.4;50.037;12.84161;77.66418;678.39;3046.691378646719;0.0;30.64516;0.0;7 / 22;232;2016-11-30 16:02:48:969
2.911;7.661;-0.612;4.4402;4.7262;7.3549;-1.2258;1.5527;-7.3549;0.2255;-1.2866;-0.7518;748.4956;18.44;-3.62;-33.87;280.65;-28.26;-30.08;0.4;50.037;12.84161;77.66418;678.39;3046.691378646719;0.0;30.64516;0.0;7 / 22;237;2016-11-30 16:02:48:974
2.911;7.661;-0.612;4.4402;4.7262;7.3549;-1.2258;1.5527;-7.3549;0.2255;-1.2866;-0.7518;748.4956;18.44;-3.62;-33.87;280.65;-28.26;-30.08;0.4;50.037;12.84161;77.66418;678.39;3046.691378646719;0.0;30.64516;0.0;7 / 22;242;2016-11-30 16:02:48:979
4.138;5.67;1.993;4.5083;4.7807;7.2868;-0.3814;0.8853;-5.2982;0.2255;-1.2866;-0.7518;748.4956;16.19;-4.12;-34.56;280.65;-28.26;-30.08;0.4;50.037;12.84161;77.66418;678.39;3046.691378646719;0.0;30.64516;0.0;7 / 22;249;2016-11-30 16:02:48:986
4.138;5.67;1.993;4.5083;4.7807;7.2868;-0.3814;0.8853;-5.2982;0.2255;-1.2866;-0.7518;748.4956;16.19;-4.12;-34.56;280.65;-28.26;-30.08;0.4;50.037;12.84161;77.66418;678.39;3046.691378646719;0.0;30.64516;0.0;7 / 22;253;2016-11-30 16:02:48:990
4.138;5.67;1.993;4.5083;4.7807;7.2868;-0.3814;0.8853;-5.2982;0.2255;-1.2866;-0.7518;748.4956;16.19;-4.12;-34.56;280.65;-28.26;-30.08;0.4;50.037;12.84161;77.66418;678.39;3046.691378646719;0.0;30.64516;0.0;7 / 22;256;2016-11-30 16:02:48:993
3.524;5.669;0.306;4.5083;4.7807;7.2868;-0.3814;0.8853;-5.2982;0.5072;-1.5645;-0.9476;748.4956;16.19;-4.12;-34.56;280.65;-28.26;-30.08;0.4;50.037;12.84161;77.66418;678.39;3046.691378646719;0.0;30.64516;0.0;7 / 22;262;2016-11-30 16:02:48:999
3.524;5.669;0.306;4.5083;4.7807;7.2868;-0.3814;0.8853;-5.2982;0.5072;-1.5645;-0.9476;748.4956;16.19;-4.12;-34.56;280.65;-28.26;-30.08;0.4;50.037;12.84161;77.66418;678.39;3046.691378646719;0.0;30.64516;0.0;7 / 22;267;2016-11-30 16:02:49:004
4.75;5.822;1.992;4.6853;5.0122;7.0144;-0.395;0.3541;-5.3391;0.6684;-1.678;-1.0049;748.4956;14.19;-4.37;-35.19;283.75;-29.16;-31.74;0.4;50.037;12.84161;77.66418;678.39;3046.691378646719;0.0;30.64516;0.0;7 / 22;272;2016-11-30 16:02:49:009
4.75;5.822;1.992;4.6853;5.0122;7.0144;-0.395;0.3541;-5.3391;0.6684;-1.678;-1.0049;737.3009;14.19;-4.37;-35.19;283.75;-29.16;-31.74;0.4;50.037;12.84161;77.66418;678.39;3046.691378646719;0.0;30.64516;0.0;7 / 22;276;2016-11-30 16:02:49:013
4.75;5.822;1.992;4.6853;5.0122;7.0144;-0.395;0.3541;-5.3391;0.7865;-1.7418;-1.0158;737.3009;14.19;-4.37;-35.19;283.75;-29.16;-31.74;0.4;50.037;12.84161;77.66418;678.39;3046.691378646719;0.0;30.64516;0.0;7 / 22;281;2016-11-30 16:02:49:018
4.75;5.822;1.992;4.6853;5.0122;7.0144;-0.395;0.3541;-5.3391;0.7865;-1.7418;-1.0158;737.3009;14.19;-4.37;-35.19;283.75;-29.16;-31.74;0.4;50.037;12.84161;77.66418;678.39;3046.691378646719;0.0;30.64516;0.0;7 / 22;286;2016-11-30 16:02:49:023
6.895;7.355;-1.379;4.8215;5.2029;6.7692;1.7706;2.4516;-5.3936;0.7865;-1.7418;-1.0158;737.3009;13.56;-5.06;-35.0;283.75;-29.16;-31.74;0.4;50.037;12.84161;77.66418;678.39;3046.691378646719;0.0;30.64516;0.0;7 / 22;291;2016-11-30 16:02:49:028
6.895;7.355;-1.379;4.8215;5.2029;6.7692;1.7706;2.4516;-5.3936;0.7865;-1.7418;-1.0158;737.3009;13.56;-5.06;-35.0;283.75;-29.16;-31.74;0.4;50.037;12.84161;77.66418;678.39;3046.691378646719;0.0;30.64516;0.0;7 / 22;297;2016-11-30 16:02:49:034
6.896;6.896;-2.91;4.9032;5.3255;6.633;1.9885;2.0294;-8.0086;1.2337;-2.1383;-1.0417;737.3009;12.56;-5.75;-35.87;283.75;-29.16;-31.74;0.4;50.037;12.84161;77.66418;678.39;3046.691378646719;0.0;30.64516;0.0;7 / 22;302;2016-11-30 16:02:49:039
6.896;6.896;-2.91;4.9032;5.3255;6.633;1.9885;2.0294;-8.0086;1.2337;-2.1383;-1.0417;737.3009;12.56;-5.75;-35.87;283.75;-29.16;-31.74;0.4;50.037;12.84161;77.66418;678.39;3046.691378646719;0.0;30.64516;0.0;7 / 22;307;2016-11-30 16:02:49:044
6.896;6.896;-2.91;4.9032;5.3255;6.633;1.9885;2.0294;-8.0086;1.2337;-2.1383;-1.0417;737.3009;12.56;-5.75;-35.87;283.75;-29.16;-31.74;0.4;50.037;12.84161;77.66418;678.39;3046.691378646719;0.0;30.64516;0.0;7 / 22;312;2016-11-30 16:02:49:049
6.896;6.896;-2.91;4.9032;5.3255;6.633;1.9885;2.0294;-8.0086;1.2337;-2.1383;-1.0417;737.3009;12.56;-5.75;-35.87;283.75;-29.16;-31.74;0.4;50.037;12.84161;77.66418;678.39;3046.691378646719;0.0;30.64516;0.0;7 / 22;316;2016-11-30 16:02:49:053
6.129;3.984;-2.145;5.0939;5.5842;6.2653;1.3348;-0.681;-8.5534;1.5585;-2.3985;-0.8457;737.3009;12.13;-6.87;-35.44;280.27;-32.85;-36.47;0.4;50.037;12.84161;77.66418;678.39;3046.691378646719;0.0;30.64516;0.0;7 / 22;322;2016-11-30 16:02:49:059
6.129;3.984;-2.145;5.0939;5.5842;6.2653;1.3348;-0.681;-8.5534;1.5585;-2.3985;-0.8457;737.3009;12.13;-6.87;-35.44;280.27;-32.85;-36.47;0.4;50.037;12.84161;77.66418;678.39;3046.691378646719;0.0;30.64516;0.0;7 / 22;327;2016-11-30 16:02:49:064
6.129;3.984;-2.145;5.0939;5.5842;6.2653;1.3348;-0.681;-8.5534;1.5585;-2.3985;-0.8457;737.3009;12.13;-6.87;-35.44;280.27;-32.85;-36.47;0.4;50.037;12.84161;77.66418;678.39;3046.691378646719;0.0;30.64516;0.0;7 / 22;332;2016-11-30 16:02:49:069
6.129;3.984;-2.145;5.0939;5.5842;6.2653;1.3348;-0.681;-8.5534;1.5585;-2.3985;-0.8457;737.3009;12.13;-6.87;-35.44;280.27;-32.85;-36.47;0.4;50.037;12.84161;77.66418;678.39;3046.691378646719;0.0;30.64516;0.0;7 / 22;336;2016-11-30 16:02:49:073
6.129;3.984;-2.145;5.3118;5.843;5.8294;1.1168;-1.866;-6.8918;1.787;-2.6409;-0.5465;737.3009;10.19;-8.94;-36.56;280.27;-32.85;-36.47;0.4;50.037;12.84161;77.66418;678.39;3046.691378646719;0.0;30.64516;0.0;7 / 22;341;2016-11-30 16:02:49:078
6.589;2.911;1.072;5.3118;5.843;5.8294;1.1168;-1.866;-6.8918;1.787;-2.6409;-0.5465;737.3009;10.19;-8.94;-36.56;280.27;-32.85;-36.47;0.4;50.037;12.84161;77.66418;678.39;3046.691378646719;0.0;30.64516;0.0;7 / 22;347;2016-11-30 16:02:49:084
6.589;2.911;1.072;5.3118;5.843;5.8294;1.1168;-1.866;-6.8918;1.787;-2.6409;-0.5465;737.3009;10.19;-8.94;-36.56;280.27;-32.85;-36.47;0.4;50.037;12.84161;77.66418;678.39;3046.691378646719;0.0;30.64516;0.0;7 / 22;351;2016-11-30 16:02:49:088
6.589;2.911;1.072;5.3118;5.843;5.8294;1.1168;-1.866;-6.8918;1.787;-2.6409;-0.5465;737.3009;10.19;-8.94;-36.56;280.27;-32.85;-36.47;0.4;50.037;12.84161;77.66418;678.39;3046.691378646719;0.0;30.64516;0.0;7 / 22;356;2016-11-30 16:02:49:093
4.903;1.685;1.532;5.6796;6.1427;5.1212;-0.7763;-4.4674;-3.5957;1.6733;-2.6518;-0.1505;737.3009;8.56;-11.5;-36.94;276.92;-36.53;-42.34;0.4;50.037;12.84161;77.66418;678.39;3046.691378646719;0.0;30.64516;0.0;7 / 22;362;2016-11-30 16:02:49:099
4.903;1.685;1.532;5.6796;6.1427;5.1212;-0.7763;-4.4674;-3.5957;1.6733;-2.6518;-0.1505;737.3009;8.56;-11.5;-36.94;276.92;-36.53;-42.34;0.4;50.037;12.84161;77.66418;678.39;3046.691378646719;0.0;30.64516;0.0;7 / 22;367;2016-11-30 16:02:49:104
4.903;1.685;1.532;5.6796;6.1427;5.1212;-0.7763;-4.4674;-3.5957;1.6733;-2.6518;-0.1505;737.3009;8.56;-11.5;-36.94;276.92;-36.53;-42.34;0.4;50.037;12.84161;77.66418;678.39;3046.691378646719;0.0;30.64516;0.0;7 / 22;372;2016-11-30 16:02:49:109
7.048;5.669;4.597;5.6796;6.1427;5.1212;-0.7763;-4.4674;-3.5957;1.6733;-2.6518;-0.1505;737.3009;8.56;-11.5;-36.94;276.92;-36.53;-42.34;0.4;49.76;12.84161;77.66418;678.39;3046.691378646719;0.0;30.64516;0.0;7 / 22;377;2016-11-30 16:02:49:114
7.048;5.669;4.597;5.8022;6.2244;4.8896;-0.1362;-2.8602;-1.0624;1.5018;-2.4781;-0.0698;737.3009;7.56;-12.56;-37.69;276.92;-36.53;-42.34;0.4;49.76;12.84161;77.66418;678.39;3046.691378646719;0.0;30.64516;0.0;7 / 22;382;2016-11-30 16:02:49:119
7.048;5.669;4.597;5.8022;6.2244;4.8896;-0.1362;-2.8602;-1.0624;1.5018;-2.4781;-0.0698;737.3009;7.56;-12.56;-37.69;276.92;-36.53;-42.34;0.4;49.76;12.84161;77.66418;678.39;3046.691378646719;0.0;30.64516;0.0;7 / 22;386;2016-11-30 16:02:49:123
6.743;7.203;2.146;6.0065;6.3606;4.4402;0.5857;0.9943;-1.3756;1.5108;-2.4792;-0.0635;737.3009;6.94;-13.56;-38.0;276.92;-36.53;-42.34;0.4;49.76;12.84161;77.66418;678.39;3046.691378646719;0.0;30.64516;0.0;7 / 22;392;2016-11-30 16:02:49:129
6.743;7.203;2.146;6.0065;6.3606;4.4402;0.5857;0.9943;-1.3756;1.5108;-2.4792;-0.0635;737.3009;6.94;-13.56;-38.0;276.92;-36.53;-42.34;0.4;49.76;12.84161;77.66418;678.39;3046.691378646719;0.0;30.64516;0.0;7 / 22;398;2016-11-30 16:02:49:135
6.743;7.203;2.146;6.0065;6.3606;4.4402;0.5857;0.9943;-1.3756;1.5108;-2.4792;-0.0635;737.3009;6.94;-13.56;-38.0;276.92;-36.53;-42.34;0.4;49.76;12.84161;77.66418;678.39;3046.691378646719;0.0;30.64516;0.0;7 / 22;402;2016-11-30 16:02:49:139
6.895;5.209;-0.612;6.0065;6.3606;4.4402;0.5857;0.9943;-1.3756;1.5108;-2.4792;-0.0635;737.3009;6.94;-13.56;-38.0;276.92;-36.53;-42.34;0.4;49.76;12.84161;77.66418;678.39;3046.691378646719;0.0;30.64516;0.0;7 / 22;407;2016-11-30 16:02:49:144
6.895;5.209;-0.612;6.2244;6.4832;3.9498;0.6674;-1.2803;-4.5491;1.6082;-2.4934;0.1282;737.3009;5.63;-14.62;-38.25;270.16;-40.42;-53.53;0.4;49.76;12.84161;77.66418;678.39;3046.691378646719;0.0;30.64516;0.0;7 / 22;412;2016-11-30 16:02:49:149
6.895;5.209;-0.612;6.2244;6.4832;3.9498;0.6674;-1.2803;-4.5491;1.6082;-2.4934;0.1282;737.3009;5.63;-14.62;-38.25;270.16;-40.42;-53.53;0.4;49.76;12.84161;77.66418;678.39;3046.691378646719;0.0;30.64516;0.0;7 / 22;417;2016-11-30 16:02:49:154
6.895;5.209;-0.612;6.2244;6.4832;3.9498;0.6674;-1.2803;-4.5491;1.705;-2.5795;0.1901;737.3009;5.63;-14.62;-38.25;270.16;-40.42;-53.53;0.4;49.76;12.84161;77.66418;678.39;3046.691378646719;0.0;30.64516;0.0;7 / 22;422;2016-11-30 16:02:49:159
6.895;5.209;-0.612;6.2244;6.4832;3.9498;0.6674;-1.2803;-4.5491;1.705;-2.5795;0.1901;737.3009;5.63;-14.62;-38.25;270.16;-40.42;-53.53;0.4;49.76;12.84161;77.66418;678.39;3046.691378646719;0.0;30.64516;0.0;7 / 22;427;2016-11-30 16:02:49:164
5.669;3.064;0.459;6.4287;6.5785;3.4323;-0.2996;-2.2882;-3.1326;1.7099;-2.5604;0.222;737.3009;4.88;-15.0;-37.5;270.16;-40.42;-53.53;0.4;49.76;12.84161;77.66418;678.39;3046.691378646719;0.0;30.64516;0.0;7 / 22;432;2016-11-30 16:02:49:169
5.669;3.064;0.459;6.4287;6.5785;3.4323;-0.2996;-2.2882;-3.1326;1.7099;-2.5604;0.222;737.3009;4.88;-15.0;-37.5;270.16;-40.42;-53.53;0.4;49.76;12.84161;77.66418;678.39;3046.691378646719;0.0;30.64516;0.0;7 / 22;437;2016-11-30 16:02:49:174
0.306;7.355;-12.718;6.4287;6.5785;3.4323;-0.2996;-2.2882;-3.1326;1.7099;-2.5604;0.222;737.3009;4.88;-15.0;-37.5;270.16;-40.42;-53.53;0.4;49.76;12.84161;77.66418;678.39;3046.691378646719;0.0;30.64516;0.0;7 / 22;442;2016-11-30 16:02:49:179
0.306;7.355;-12.718;6.4287;6.5785;3.4323;-0.2996;-2.2882;-3.1326;1.7099;-2.5604;0.222;737.3009;4.88;-15.0;-37.5;270.16;-40.42;-53.53;0.4;49.76;12.84161;77.66418;678.39;3046.691378646719;0.0;30.64516;0.0;7 / 22;447;2016-11-30 16:02:49:184
0.306;7.355;-12.718;6.6194;6.6739;2.8057;-5.7068;-1.6208;-15.8266;2.3461;-3.1326;0.2596;737.3009;4.63;-15.25;-37.06;266.06;-42.07;-61.9;0.4;49.76;12.84161;77.66418;678.39;3046.691378646719;0.0;30.64516;0.0;7 / 22;452;2016-11-30 16:02:49:189
0.306;7.355;-12.718;6.6194;6.6739;2.8057;-5.7068;-1.6208;-15.8266;2.3461;-3.1326;0.2596;737.3009;4.63;-15.25;-37.06;266.06;-42.07;-61.9;0.4;49.76;12.84161;77.66418;678.39;3046.691378646719;0.0;30.64516;0.0;7 / 22;457;2016-11-30 16:02:49:194
0.306;7.355;-12.718;6.6194;6.6739;2.8057;-5.7068;-1.6208;-15.8266;2.3461;-3.1326;0.2596;737.3009;4.63;-15.25;-37.06;266.06;-42.07;-61.9;0.4;49.76;12.84161;77.66418;678.39;3046.691378646719;0.0;30.64516;0.0;7 / 22;462;2016-11-30 16:02:49:199
4.903;13.484;-8.427;6.7147;6.7283;2.4244;-1.6617;3.5412;-14.9958;2.6226;-3.279;0.1661;737.3009;4.56;-15.69;-36.44;266.06;-42.07;-61.9;0.4;49.76;12.84161;77.66418;678.39;3046.691378646719;0.0;30.64516;0.0;7 / 22;467;2016-11-30 16:02:49:204
4.903;13.484;-8.427;6.7147;6.7283;2.4244;-1.6617;3.5412;-14.9958;2.6226;-3.279;0.1661;737.3009;4.56;-15.69;-36.44;266.06;-42.07;-61.9;0.4;49.76;12.84161;77.66418;678.39;3046.691378646719;0.0;30.64516;0.0;7 / 22;472;2016-11-30 16:02:49:209
4.903;13.484;-8.427;6.7147;6.7283;2.4244;-1.6617;3.5412;-14.9958;2.6226;-3.279;0.1661;737.3009;4.56;-15.69;-36.44;266.06;-42.07;-61.9;0.4;49.76;12.84161;77.66418;678.39;3046.691378646719;0.0;30.64516;0.0;7 / 22;477;2016-11-30 16:02:49:214
4.903;13.484;-8.427;6.7147;6.7283;2.4244;-1.6617;3.5412;-14.9958;2.6226;-3.279;0.1661;737.3009;4.56;-15.69;-36.44;266.06;-42.07;-61.9;0.4;49.76;12.84161;77.66418;678.39;3046.691378646719;0.0;30.64516;0.0;7 / 22;482;2016-11-30 16:02:49:219
5.364;19.461;-7.967;6.7692;6.8918;1.6753;-2.1792;12.5714;-8.7169;2.7167;-3.0748;-0.6864;737.3009;4.19;-16.06;-35.44;259.96;-43.3;-70.15;0.4;49.76;12.84161;77.66418;678.39;3046.691378646719;0.0;30.64516;0.0;7 / 22;486;2016-11-30 16:02:49:223
5.364;19.461;-7.967;6.7692;6.8918;1.6753;-2.1792;12.5714;-8.7169;2.7167;-3.0748;-0.6864;737.3009;4.19;-16.06;-35.44;259.96;-43.3;-70.15;0.4;49.76;12.84161;77.66418;678.39;3046.691378646719;0.0;30.64516;0.0;7 / 22;492;2016-11-30 16:02:49:229
5.364;19.461;-7.967;6.7692;6.8918;1.6753;-2.1792;12.5714;-8.7169;2.7167;-3.0748;-0.6864;737.3009;4.19;-16.06;-35.44;259.96;-43.3;-70.15;0.4;49.76;12.84161;77.66418;678.39;3046.691378646719;0.0;30.64516;0.0;7 / 22;497;2016-11-30 16:02:49:234
5.516;16.396;-3.677;6.7011;7.0961;0.967;-1.9613;11.6044;-6.0201;2.4317;-2.6144;-1.2024;737.3009;4.13;-16.87;-33.87;259.96;-43.3;-70.15;0.4;49.76;12.84161;77.66418;678.39;3046.691378646719;0.0;30.64516;0.0;7 / 22;502;2016-11-30 16:02:49:239
5.516;16.396;-3.677;6.7011;7.0961;0.967;-1.9613;11.6044;-6.0201;2.4317;-2.6144;-1.2024;737.3009;4.13;-16.87;-33.87;259.96;-43.3;-70.15;0.4;49.76;12.84161;77.66418;678.39;3046.691378646719;0.0;30.64516;0.0;7 / 22;506;2016-11-30 16:02:49:243
5.516;16.396;-3.677;6.7011;7.0961;0.967;-1.9613;11.6044;-6.0201;2.4748;-2.5904;-1.3384;737.3009;4.13;-16.87;-33.87;259.96;-43.3;-70.15;0.4;49.76;12.84161;77.66418;678.39;3046.691378646719;0.0;30.64516;0.0;7 / 22;512;2016-11-30 16:02:49:249
5.516;16.396;-3.677;6.7011;7.0961;0.967;-1.9613;11.6044;-6.0201;2.4748;-2.5904;-1.3384;737.3009;4.13;-16.87;-33.87;259.96;-43.3;-70.15;0.4;49.76;12.84161;77.66418;678.39;3046.691378646719;0.0;30.64516;0.0;7 / 22;517;2016-11-30 16:02:49:254
5.516;16.396;-3.677;6.5513;7.3004;0.3269;-0.4222;6.6466;-3.0781;2.4748;-2.5904;-1.3384;737.3009;5.0;-17.5;-32.56;259.96;-43.3;-70.15;0.4;49.76;12.84161;77.66418;678.39;3046.691378646719;0.0;30.64516;0.0;7 / 22;522;2016-11-30 16:02:49:259
6.895;12.258;-0.153;6.5513;7.3004;0.3269;-0.4222;6.6466;-3.0781;2.4748;-2.5904;-1.3384;737.3009;5.0;-17.5;-32.56;259.96;-43.3;-70.15;0.4;49.76;12.84161;77.66418;678.39;3046.691378646719;0.0;30.64516;0.0;7 / 22;526;2016-11-30 16:02:49:263
6.895;12.258;-0.153;6.4559;7.3821;0.0545;-0.177;4.1133;-2.043;2.0952;-2.1097;-1.2836;737.3009;5.0;-17.5;-32.56;247.36;-48.06;-87.14;0.4;49.76;12.84161;77.66418;678.39;3046.691378646719;0.0;30.64516;0.0;7 / 22;531;2016-11-30 16:02:49:268
6.895;12.258;-0.153;6.4559;7.3821;0.0545;-0.177;4.1133;-2.043;2.0952;-2.1097;-1.2836;737.3009;5.0;-17.5;-32.56;247.36;-48.06;-87.14;0.4;49.76;12.84161;77.66418;678.39;3046.691378646719;0.0;30.64516;0.0;7 / 22;536;2016-11-30 16:02:49:273
6.895;12.258;-0.153;6.4559;7.3821;0.0545;-0.177;4.1133;-2.043;1.8604;-1.8446;-1.2381;737.3009;5.0;-17.5;-32.56;247.36;-48.06;-87.14;0.4;49.76;12.84161;77.66418;678.39;3046.691378646719;0.0;30.64516;0.0;7 / 22;542;2016-11-30 16:02:49:279
7.202;8.427;-2.298;6.4559;7.3821;0.0545;-0.177;4.1133;-2.043;1.8604;-1.8446;-1.2381;737.3009;5.0;-17.5;-32.56;247.36;-48.06;-87.14;0.4;49.76;12.84161;77.66418;678.39;3046.691378646719;0.0;30.64516;0.0;7 / 22;547;2016-11-30 16:02:49:284
7.202;8.427;-2.298;6.4559;7.3821;0.0545;-0.177;4.1133;-2.043;1.8604;-1.8446;-1.2381;737.3009;5.0;-17.5;-32.56;247.36;-48.06;-87.14;0.4;49.76;12.84161;77.66418;678.39;3046.691378646719;0.0;30.64516;0.0;7 / 22;552;2016-11-30 16:02:49:289
7.202;8.427;-2.298;6.1972;7.5864;-0.5857;0.5448;0.2315;-0.9398;1.4396;-1.5059;-1.1865;737.3009;5.06;-16.87;-32.0;247.36;-48.06;-87.14;0.4;49.76;12.84161;77.66418;678.39;3046.691378646719;0.0;30.64516;0.0;7 / 22;557;2016-11-30 16:02:49:294
6.59;8.428;-1.531;6.1972;7.5864;-0.5857;0.5448;0.2315;-0.9398;1.4396;-1.5059;-1.1865;737.3009;5.06;-16.87;-32.0;247.36;-48.06;-87.14;0.4;49.76;12.84161;77.66418;678.39;3046.691378646719;0.0;30.64516;0.0;7 / 22;562;2016-11-30 16:02:49:299
6.59;8.428;-1.531;6.1972;7.5864;-0.5857;0.5448;0.2315;-0.9398;1.4396;-1.5059;-1.1865;737.3009;5.06;-16.87;-32.0;247.36;-48.06;-87.14;0.4;49.76;12.84161;77.66418;678.39;3046.691378646719;0.0;30.64516;0.0;7 / 22;567;2016-11-30 16:02:49:304
6.59;8.428;-1.531;6.0201;7.6954;-0.8989;-4.0316;-1.2667;1.1986;1.1055;-1.2198;-1.1519;737.3009;5.69;-16.31;-32.37;241.35;-50.63;-95.4;0.4;49.76;12.84161;77.66418;678.39;3046.691378646719;0.0;30.64516;0.0;7 / 22;572;2016-11-30 16:02:49:309
6.59;8.428;-1.531;6.0201;7.6954;-0.8989;-4.0316;-1.2667;1.1986;1.1055;-1.2198;-1.1519;737.3009;5.69;-16.31;-32.37;241.35;-50.63;-95.4;0.4;49.76;12.84161;77.66418;678.39;3046.691378646719;0.0;30.64516;0.0;7 / 22;577;2016-11-30 16:02:49:314
6.59;8.428;-1.531;6.0201;7.6954;-0.8989;-4.0316;-1.2667;1.1986;1.1055;-1.2198;-1.1519;737.3009;5.69;-16.31;-32.37;241.35;-50.63;-95.4;0.4;49.76;12.84161;77.66418;678.39;3046.691378646719;0.0;30.64516;0.0;7 / 22;582;2016-11-30 16:02:49:319
3.217;6.435;-0.153;6.0201;7.6954;-0.8989;-4.0316;-1.2667;1.1986;1.1055;-1.2198;-1.1519;310.473;5.69;-16.31;-32.37;241.35;-50.63;-95.4;0.4;49.76;12.84161;77.66418;678.39;3046.691378646719;0.0;30.64516;0.0;7 / 22;587;2016-11-30 16:02:49:324
3.217;6.435;-0.153;5.8158;7.8043;-1.1441;-1.076;0.9262;-0.2315;0.8544;-1.0286;-1.2596;310.473;5.81;-15.06;-33.06;241.35;-50.63;-95.4;0.4;49.76;12.84161;77.66418;678.39;3046.691378646719;0.0;30.64516;0.0;7 / 22;592;2016-11-30 16:02:49:329
3.217;6.435;-0.153;5.8158;7.8043;-1.1441;-1.076;0.9262;-0.2315;0.8544;-1.0286;-1.2596;310.473;5.81;-15.06;-33.06;241.35;-50.63;-95.4;0.4;49.76;12.84161;77.66418;678.39;3046.691378646719;0.0;30.64516;0.0;7 / 22;597;2016-11-30 16:02:49:334
5.517;7.203;-1.837;5.7204;7.8724;-1.2531;-0.2043;0.7082;-0.5857;0.8176;-0.9967;-1.3131;310.473;5.81;-15.06;-33.06;241.35;-50.63;-95.4;0.4;49.76;12.84161;77.66418;678.39;3046.691378646719;0.0;30.64516;0.0;7 / 22;602;2016-11-30 16:02:49:339
5.517;7.203;-1.837;5.7204;7.8724;-1.2531;-0.2043;0.7082;-0.5857;0.8176;-0.9967;-1.3131;310.473;5.81;-15.06;-33.06;241.35;-50.63;-95.4;0.4;49.76;12.84161;77.66418;678.39;3046.691378646719;0.0;30.64516;0.0;7 / 22;618;2016-11-30 16:02:49:355
5.517;7.203;-1.837;5.7204;7.8724;-1.2531;-0.2043;0.7082;-0.5857;0.8176;-0.9967;-1.3131;310.473;5.81;-15.06;-33.06;241.35;-50.63;-95.4;0.4;49.76;12.84161;77.66418;678.39;3046.691378646719;0.0;30.64516;0.0;7 / 22;619;2016-11-30 16:02:49:356
5.517;7.203;-1.837;5.5161;7.9678;-1.4846;0.2996;-7.0552;-1.2667;1.0406;-1.051;-1.1282;310.473;5.0;-14.62;-33.87;239.8;-53.36;-102.36;0.4;49.76;12.84161;77.66418;678.39;3046.691378646719;0.0;30.64516;0.0;7 / 22;619;2016-11-30 16:02:49:356
4.29;-1.992;-2.298;5.5161;7.9678;-1.4846;0.2996;-7.0552;-1.2667;1.0406;-1.051;-1.1282;310.473;5.0;-14.62;-33.87;239.8;-53.36;-102.36;0.4;49.76;12.84161;77.66418;678.39;3046.691378646719;0.0;30.64516;0.0;7 / 22;622;2016-11-30 16:02:49:359
4.29;-1.992;-2.298;5.5161;7.9678;-1.4846;0.2996;-7.0552;-1.2667;1.0406;-1.051;-1.1282;310.473;5.0;-14.62;-33.87;239.8;-53.36;-102.36;0.4;49.76;12.84161;77.66418;678.39;3046.691378646719;0.0;30.64516;0.0;7 / 22;627;2016-11-30 16:02:49:364
4.29;-1.992;-2.298;5.5161;7.9678;-1.4846;0.2996;-7.0552;-1.2667;1.0406;-1.051;-1.1282;310.473;5.0;-14.62;-33.87;239.8;-53.36;-102.36;0.4;49.76;12.84161;77.66418;678.39;3046.691378646719;0.0;30.64516;0.0;7 / 22;632;2016-11-30 16:02:49:369
4.29;-1.992;-2.298;5.5161;7.9678;-1.4846;0.2996;-7.0552;-1.2667;1.0406;-1.051;-1.1282;310.473;5.0;-14.62;-33.87;239.8;-53.36;-102.36;0.4;49.76;12.84161;77.66418;678.39;3046.691378646719;0.0;30.64516;0.0;7 / 22;636;2016-11-30 16:02:49:373
4.29;-1.992;-2.298;5.3391;8.0359;-1.7842;-4.5764;-8.9484;-0.0545;1.2253;-1.09;-0.9869;310.473;4.88;-14.69;-34.06;239.8;-53.36;-102.36;0.4;49.76;12.84161;77.66418;678.39;3046.691378646719;0.0;30.64516;0.0;7 / 22;641;2016-11-30 16:02:49:378
4.29;-1.992;-2.298;5.3391;8.0359;-1.7842;-4.5764;-8.9484;-0.0545;1.2253;-1.09;-0.9869;310.473;4.88;-14.69;-34.06;239.8;-53.36;-102.36;0.4;49.76;12.84161;77.66418;678.39;3046.691378646719;0.0;30.64516;0.0;7 / 22;646;2016-11-30 16:02:49:383
2.451;0.0;-1.992;5.3391;8.0359;-1.7842;-4.5764;-8.9484;-0.0545;1.2253;-1.09;-0.9869;310.473;4.88;-14.69;-34.06;239.8;-53.36;-102.36;0.4;49.76;12.84161;77.66418;678.39;3046.691378646719;0.0;30.64516;0.0;7 / 22;651;2016-11-30 16:02:49:388
2.451;0.0;-1.992;5.3391;8.0359;-1.7842;-4.5764;-8.9484;-0.0545;1.2253;-1.09;-0.9869;310.473;4.88;-14.69;-34.06;239.8;-53.36;-102.36;0.4;49.76;12.84161;77.66418;678.39;3046.691378646719;0.0;30.64516;0.0;7 / 22;657;2016-11-30 16:02:49:394
2.451;0.0;-1.992;5.3391;8.0359;-1.7842;-4.5764;-8.9484;-0.0545;1.2253;-1.09;-0.9869;310.473;5.44;-15.12;-34.06;239.8;-53.36;-102.36;0.0;49.76;12.84161;77.66418;678.39;3046.691378646719;0.0;30.64516;0.0;7 / 22;661;2016-11-30 16:02:49:398
6.435;5.822;-4.597;5.162;8.0767;-2.0566;0.3541;-3.7864;-1.1577;1.0657;-0.9147;-0.8225;310.473;5.44;-15.12;-34.06;235.19;-54.99;-108.48;0.0;49.76;12.84161;77.66418;678.39;3046.691378646719;0.0;30.64516;0.0;7 / 22;666;2016-11-30 16:02:49:403
6.435;5.822;-4.597;5.162;8.0767;-2.0566;0.3541;-3.7864;-1.1577;1.0657;-0.9147;-0.8225;310.473;5.44;-15.12;-34.06;235.19;-54.99;-108.48;0.0;49.76;12.84161;77.66418;678.39;3046.691378646719;0.0;30.64516;0.0;7 / 22;671;2016-11-30 16:02:49:408
6.435;5.822;-4.597;5.162;8.0767;-2.0566;0.3541;-3.7864;-1.1577;1.0207;-0.8519;-0.7551;310.473;5.44;-15.12;-34.06;235.19;-54.99;-108.48;0.0;49.76;12.84161;77.66418;678.39;3046.691378646719;0.0;30.64516;0.0;7 / 22;676;2016-11-30 16:02:49:413
4.903;7.508;-4.29;5.0394;8.104;-2.2609;1.7025;-3.0509;1.1986;1.0207;-0.8519;-0.7551;310.473;5.13;-15.69;-33.87;235.19;-54.99;-108.48;0.0;49.76;12.84161;77.66418;678.39;3046.691378646719;0.0;30.64516;0.0;7 / 22;681;2016-11-30 16:02:49:418
4.903;7.508;-4.29;5.0394;8.104;-2.2609;1.7025;-3.0509;1.1986;1.0207;-0.8519;-0.7551;310.473;5.13;-15.69;-33.87;235.19;-54.99;-108.48;0.0;49.76;12.84161;77.66418;678.39;3046.691378646719;0.0;30.64516;0.0;7 / 22;687;2016-11-30 16:02:49:424
4.903;7.508;-4.29;5.0394;8.104;-2.2609;1.7025;-3.0509;1.1986;0.2471;-0.2337;-0.3371;310.473;5.13;-15.69;-33.87;235.19;-54.99;-108.48;0.0;49.76;12.84161;77.66418;678.39;3046.691378646719;0.0;30.64516;0.0;7 / 22;692;2016-11-30 16:02:49:429
4.903;7.508;-4.29;5.0394;8.104;-2.2609;1.7025;-3.0509;1.1986;0.2471;-0.2337;-0.3371;310.473;5.13;-15.69;-33.87;235.19;-54.99;-108.48;0.0;49.76;12.841645;77.66422;677.74;3046.691378646719;0.0;29.032257;0.0;7 / 22;696;2016-11-30 16:02:49:433
5.056;8.581;-1.379;4.9986;8.1176;-2.2882;-0.7082;0.0;3.6638;0.0068;0.0139;-0.1162;310.473;4.81;-16.19;-34.06;230.04;-55.72;-114.16;0.0;49.76;12.841645;77.66422;677.74;3046.691378646719;0.0;29.032257;0.0;7 / 22;701;2016-11-30 16:02:49:438
5.056;8.581;-1.379;4.9986;8.1176;-2.2882;-0.7082;0.0;3.6638;0.0068;0.0139;-0.1162;310.473;4.81;-16.19;-34.06;230.04;-55.72;-114.16;0.0;49.76;12.841645;77.66422;677.74;3046.691378646719;0.0;29.032257;0.0;7 / 22;706;2016-11-30 16:02:49:443
5.056;8.581;-1.379;4.9986;8.1176;-2.2882;-0.7082;0.0;3.6638;0.0068;0.0139;-0.1162;310.473;4.81;-16.19;-34.06;230.04;-55.72;-114.16;0.0;49.76;12.841645;77.66422;677.74;3046.691378646719;0.0;29.032257;0.0;7 / 22;711;2016-11-30 16:02:49:448
5.056;8.581;-1.379;4.9986;8.1176;-2.2882;-0.7082;0.0;3.6638;0.0068;0.0139;-0.1162;310.473;4.81;-16.19;-34.06;230.04;-55.72;-114.16;0.0;49.76;12.841645;77.66422;677.74;3046.691378646719;0.0;29.032257;0.0;7 / 22;716;2016-11-30 16:02:49:453
3.218;3.831;-1.378;5.0258;8.1176;-2.2746;0.0272;0.4631;0.8989;-0.0777;0.1808;0.1974;310.473;4.56;-16.25;-34.19;230.04;-55.72;-114.16;0.0;49.76;12.841645;77.66422;677.74;3046.691378646719;0.0;29.032257;0.0;7 / 22;721;2016-11-30 16:02:49:458
3.218;3.831;-1.378;5.0258;8.1176;-2.2746;0.0272;0.4631;0.8989;-0.0777;0.1808;0.1974;310.473;4.56;-16.25;-34.19;230.04;-55.72;-114.16;0.0;59.893;12.841645;77.66422;677.74;3046.691378646719;0.0;29.032257;0.0;7 / 22;726;2016-11-30 16:02:49:463
3.218;3.831;-1.378;5.0258;8.1176;-2.2746;0.0272;0.4631;0.8989;-0.0886;0.4161;0.7693;310.473;4.56;-16.25;-34.19;230.04;-55.72;-114.16;0.0;59.893;12.841645;77.66422;677.74;3046.691378646719;0.0;29.032257;0.0;7 / 22;732;2016-11-30 16:02:49:469
3.218;3.831;-1.378;5.0258;8.1176;-2.2746;0.0272;0.4631;0.8989;-0.0886;0.4161;0.7693;310.473;4.56;-16.25;-34.19;230.04;-55.72;-114.16;0.0;59.893;12.841645;77.66422;677.74;3046.691378646719;0.0;29.032257;0.0;7 / 22;737;2016-11-30 16:02:49:474
3.218;3.831;-1.378;5.1893;8.0086;-2.2337;-4.8896;-4.1814;-5.271;0.2348;0.1661;0.8181;310.473;4.81;-16.25;-33.19;229.38;-55.8;-114.35;0.0;59.893;12.841645;77.66422;677.74;3046.691378646719;0.0;29.032257;0.0;7 / 22;742;2016-11-30 16:02:49:479
4.29;11.952;2.604;5.1893;8.0086;-2.2337;-4.8896;-4.1814;-5.271;0.2348;0.1661;0.8181;310.473;4.81;-16.25;-33.19;229.38;-55.8;-114.35;0.0;59.893;12.841645;77.66422;677.74;3046.691378646719;0.0;29.032257;0.0;7 / 22;747;2016-11-30 16:02:49:484
4.29;11.952;2.604;5.1893;8.0086;-2.2337;-4.8896;-4.1814;-5.271;0.0496;0.177;0.5836;310.473;4.81;-16.25;-33.19;229.38;-55.8;-114.35;0.0;59.893;12.841645;77.66422;677.74;3046.691378646719;0.0;29.032257;0.0;7 / 22;752;2016-11-30 16:02:49:489
4.29;11.952;2.604;5.1893;8.0086;-2.2337;-4.8896;-4.1814;-5.271;0.0496;0.177;0.5836;310.473;4.81;-16.25;-33.19;229.38;-55.8;-114.35;0.0;59.893;12.841645;77.66422;677.74;3046.691378646719;0.0;29.032257;0.0;7 / 22;756;2016-11-30 16:02:49:493
4.29;11.952;2.604;5.2982;7.9541;-2.2065;2.6695;9.9836;0.9806;-0.0559;0.1813;0.4437;310.473;4.44;-15.5;-33.62;229.38;-55.8;-114.35;0.0;59.893;12.841645;77.66422;677.74;3046.691378646719;0.0;29.032257;0.0;7 / 22;761;2016-11-30 16:02:49:498
8.887;16.702;-0.919;5.2982;7.9541;-2.2065;2.6695;9.9836;0.9806;-0.0559;0.1813;0.4437;310.473;4.44;-15.5;-33.62;229.38;-55.8;-114.35;0.0;59.893;12.841645;77.66422;677.74;3046.691378646719;0.0;29.032257;0.0;7 / 22;767;2016-11-30 16:02:49:504
8.887;16.702;-0.919;5.2982;7.9541;-2.2065;2.6695;9.9836;0.9806;-0.0559;0.1813;0.4437;310.473;4.44;-15.5;-33.62;229.38;-55.8;-114.35;0.0;59.893;12.841645;77.66422;677.74;3046.691378646719;0.0;29.032257;0.0;7 / 22;772;2016-11-30 16:02:49:509
8.887;16.702;-0.919;5.2982;7.9541;-2.2065;2.6695;9.9836;0.9806;-0.1426;0.1666;0.3237;310.473;4.44;-15.5;-33.62;229.38;-55.8;-114.35;0.0;59.893;12.841645;77.66422;677.74;3046.691378646719;0.0;29.032257;0.0;7 / 22;777;2016-11-30 16:02:49:514
-0.612;2.911;4.75;5.3527;7.9269;-2.1656;-3.2143;3.5685;0.4903;-0.1426;0.1666;0.3237;310.473;4.06;-15.31;-34.31;233.15;-54.19;-112.61;0.0;59.893;12.841645;77.66422;677.74;3046.691378646719;0.0;29.032257;0.0;7 / 22;781;2016-11-30 16:02:49:518
-0.612;2.911;4.75;5.3527;7.9269;-2.1656;-3.2143;3.5685;0.4903;-0.1426;0.1666;0.3237;310.473;4.06;-15.31;-34.31;233.15;-54.19;-112.61;0.0;59.893;12.841645;77.66422;677.74;3046.691378646719;0.0;29.032257;0.0;7 / 22;786;2016-11-30 16:02:49:523
-0.612;2.911;4.75;5.3527;7.9269;-2.1656;-3.2143;3.5685;0.4903;-0.3758;0.1723;0.0251;310.473;4.06;-15.31;-34.31;233.15;-54.19;-112.61;0.0;59.893;12.841645;77.66422;677.74;3046.691378646719;0.0;29.032257;0.0;7 / 22;792;2016-11-30 16:02:49:529
-0.612;2.911;4.75;5.3527;7.9269;-2.1656;-3.2143;3.5685;0.4903;-0.3758;0.1723;0.0251;310.473;4.06;-15.31;-34.31;233.15;-54.19;-112.61;0.0;59.893;12.841645;77.66422;677.74;3046.691378646719;0.0;29.032257;0.0;7 / 22;797;2016-11-30 16:02:49:534
-0.612;2.911;4.75;5.2982;7.995;-2.043;-12.0402;-0.9534;7.5592;-0.9853;0.231;-0.8173;310.473;4.94;-14.12;-34.69;233.15;-54.19;-112.61;0.0;59.893;12.841645;77.66422;677.74;3046.691378646719;0.0;29.032257;0.0;7 / 22;802;2016-11-30 16:02:49:539
2.758;18.847;-3.524;5.2982;7.995;-2.043;-12.0402;-0.9534;7.5592;-0.9853;0.231;-0.8173;310.473;4.94;-14.12;-34.69;233.15;-54.19;-112.61;0.0;59.893;12.841645;77.66422;677.74;3046.691378646719;0.0;29.032257;0.0;7 / 22;807;2016-11-30 16:02:49:544
2.758;18.847;-3.524;5.2982;7.995;-2.043;-12.0402;-0.9534;7.5592;-0.8375;0.0027;-0.9916;310.473;4.94;-14.12;-34.69;233.15;-54.19;-112.61;0.0;59.893;12.841645;77.66422;677.74;3046.691378646719;0.0;29.032257;0.0;7 / 22;812;2016-11-30 16:02:49:549
2.758;18.847;-3.524;5.2982;7.995;-2.043;-12.0402;-0.9534;7.5592;-0.8375;0.0027;-0.9916;310.473;4.94;-14.12;-34.69;233.15;-54.19;-112.61;0.0;59.893;12.841645;77.66422;677.74;3046.691378646719;0.0;29.032257;0.0;7 / 22;817;2016-11-30 16:02:49:554
2.758;18.847;-3.524;5.1484;8.1312;-1.9204;1.5936;10.5692;4.3721;-0.8375;0.0027;-0.9916;310.473;4.75;-13.12;-34.94;235.01;-54.62;-111.09;0.0;59.893;12.841645;77.66422;677.74;3046.691378646719;0.0;29.032257;0.0;7 / 22;822;2016-11-30 16:02:49:559
7.968;15.17;1.379;5.1484;8.1312;-1.9204;1.5936;10.5692;4.3721;-0.8375;0.0027;-0.9916;310.473;4.75;-13.12;-34.94;235.01;-54.62;-111.09;0.0;59.893;12.841645;77.66422;677.74;3046.691378646719;0.0;29.032257;0.0;7 / 22;826;2016-11-30 16:02:49:563
7.968;15.17;1.379;5.1484;8.1312;-1.9204;1.5936;10.5692;4.3721;-0.8947;0.0134;-0.8718;310.473;4.75;-13.12;-34.94;235.01;-54.62;-111.09;0.0;59.893;12.841645;77.66422;677.74;3046.691378646719;0.0;29.032257;0.0;7 / 22;831;2016-11-30 16:02:49:568
7.968;15.17;1.379;5.1484;8.1312;-1.9204;1.5936;10.5692;4.3721;-0.8947;0.0134;-0.8718;310.473;4.75;-13.12;-34.94;235.01;-54.62;-111.09;0.0;59.893;12.841645;77.66422;677.74;3046.691378646719;0.0;29.032257;0.0;7 / 22;836;2016-11-30 16:02:49:573
7.968;15.17;1.379;5.1484;8.1312;-1.9204;1.5936;10.5692;4.3721;-0.8947;0.0134;-0.8718;310.473;4.75;-13.12;-34.94;235.01;-54.62;-111.09;0.0;59.893;12.841645;77.66422;677.74;3046.691378646719;0.0;29.032257;0.0;7 / 22;841;2016-11-30 16:02:49:578
2.604;12.411;4.903;5.0122;8.2402;-1.7842;-1.4982;5.0939;1.3348;-0.8236;-0.0376;-0.8056;310.473;3.81;-11.25;-36.25;235.01;-54.62;-111.09;0.0;59.893;12.841645;77.66422;677.74;3046.691378646719;0.0;29.032257;0.0;7 / 22;847;2016-11-30 16:02:49:584
2.604;12.411;4.903;5.0122;8.2402;-1.7842;-1.4982;5.0939;1.3348;-0.8236;-0.0376;-0.8056;310.473;3.81;-11.25;-36.25;235.01;-54.62;-111.09;0.0;59.893;12.841645;77.66422;677.74;3046.691378646719;0.0;29.032257;0.0;7 / 22;852;2016-11-30 16:02:49:589
2.604;12.411;4.903;5.0122;8.2402;-1.7842;-1.4982;5.0939;1.3348;-0.8236;-0.0376;-0.8056;310.473;3.81;-11.25;-36.25;235.01;-54.62;-111.09;0.0;59.893;12.841645;77.66422;677.74;3046.691378646719;0.0;29.032257;0.0;7 / 22;857;2016-11-30 16:02:49:594
-1.379;9.807;-0.306;4.8079;8.39;-1.5936;-6.1835;2.6423;2.8194;-1.4443;-0.1453;-1.5626;310.473;3.25;-9.25;-37.06;242.42;-57.15;-109.59;0.0;59.893;12.841645;77.66422;677.74;3046.691378646719;0.0;29.032257;0.0;7 / 22;862;2016-11-30 16:02:49:599
-1.379;9.807;-0.306;4.8079;8.39;-1.5936;-6.1835;2.6423;2.8194;-1.4443;-0.1453;-1.5626;310.473;3.25;-9.25;-37.06;242.42;-57.15;-109.59;0.0;59.893;12.841645;77.66422;677.74;3046.691378646719;0.0;29.032257;0.0;7 / 22;867;2016-11-30 16:02:49:604
-1.379;9.807;-0.306;4.6717;8.499;-1.4982;-6.0473;1.3075;1.1986;-1.4685;-0.2771;-1.7401;310.473;3.25;-9.25;-37.06;242.42;-57.15;-109.59;0.0;59.893;12.841645;77.66422;677.74;3046.691378646719;0.0;29.032257;0.0;7 / 22;872;2016-11-30 16:02:49:609
-1.379;9.807;-0.306;4.6717;8.499;-1.4982;-6.0473;1.3075;1.1986;-1.4685;-0.2771;-1.7401;310.473;3.25;-9.25;-37.06;242.42;-57.15;-109.59;0.0;59.893;12.841645;77.66422;677.74;3046.691378646719;0.0;29.032257;0.0;7 / 22;877;2016-11-30 16:02:49:614
-3.064;7.661;2.911;4.6717;8.499;-1.4982;-6.0473;1.3075;1.1986;-1.4685;-0.2771;-1.7401;310.473;3.25;-9.25;-37.06;242.42;-57.15;-109.59;0.0;59.893;12.841645;77.66422;677.74;3046.691378646719;0.0;29.032257;0.0;7 / 22;882;2016-11-30 16:02:49:619
-3.064;7.661;2.911;4.6717;8.499;-1.4982;-6.0473;1.3075;1.1986;-1.4685;-0.2771;-1.7401;310.473;3.25;-9.25;-37.06;242.42;-57.15;-109.59;0.0;59.893;12.841645;77.66422;677.74;3046.691378646719;0.0;29.032257;0.0;7 / 22;886;2016-11-30 16:02:49:623
-3.064;7.661;2.911;4.6717;8.499;-1.4982;-6.0473;1.3075;1.1986;-1.4685;-0.2771;-1.7401;310.473;3.25;-9.25;-37.06;242.42;-57.15;-109.59;0.0;59.893;12.841645;77.66422;677.74;3046.691378646719;0.0;29.032257;0.0;7 / 22;891;2016-11-30 16:02:49:628
-2.451;10.266;3.217;4.3721;8.6896;-1.2939;-7.4366;-1.9477;2.8194;-1.5007;-0.483;-1.8293;148.9655;1.69;-7.19;-37.81;246.87;-60.0;-107.78;0.0;59.893;12.841645;77.66422;677.74;3046.691378646719;0.0;29.032257;0.0;7 / 22;897;2016-11-30 16:02:49:634
-2.451;10.266;3.217;4.3721;8.6896;-1.2939;-7.4366;-1.9477;2.8194;-1.5007;-0.483;-1.8293;148.9655;1.69;-7.19;-37.81;246.87;-60.0;-107.78;0.0;59.893;12.841645;77.66422;677.74;3046.691378646719;0.0;29.032257;0.0;7 / 22;902;2016-11-30 16:02:49:639
-2.451;10.266;3.217;4.3721;8.6896;-1.2939;-7.4366;-1.9477;2.8194;-1.8645;-0.7191;-2.4077;148.9655;1.69;-7.19;-37.81;246.87;-60.0;-107.78;0.0;59.893;12.841645;77.66422;677.74;3046.691378646719;0.0;29.032257;0.0;7 / 22;907;2016-11-30 16:02:49:644
-4.29;9.653;1.992;3.7592;9.0165;-0.9262;-8.0495;0.6401;2.9147;-1.8645;-0.7191;-2.4077;148.9655;0.75;-6.0;-39.06;246.87;-60.0;-107.78;0.0;59.893;12.841645;77.66422;677.74;3046.691378646719;0.0;29.032257;0.0;7 / 22;912;2016-11-30 16:02:49:649
-4.29;9.653;1.992;3.7592;9.0165;-0.9262;-8.0495;0.6401;2.9147;-1.8645;-0.7191;-2.4077;148.9655;0.75;-6.0;-39.06;246.87;-60.0;-107.78;0.0;59.893;12.841645;77.66422;677.74;3046.691378646719;0.0;29.032257;0.0;7 / 22;917;2016-11-30 16:02:49:654
-4.29;9.653;1.992;3.7592;9.0165;-0.9262;-8.0495;0.6401;2.9147;-1.8849;-0.8298;-2.6436;148.9655;0.75;-6.0;-39.06;246.87;-60.0;-107.78;0.0;59.893;12.841645;77.66422;677.74;3046.691378646719;0.0;29.032257;0.0;7 / 22;922;2016-11-30 16:02:49:659
-5.363;9.194;1.685;3.7592;9.0165;-0.9262;-8.0495;0.6401;2.9147;-1.8849;-0.8298;-2.6436;148.9655;0.75;-6.0;-39.06;246.87;-60.0;-107.78;0.0;59.893;12.841645;77.66422;677.74;3046.691378646719;0.0;29.032257;0.0;7 / 22;927;2016-11-30 16:02:49:664
-5.363;9.194;1.685;3.2688;9.2208;-0.681;-7.5592;1.6617;-1.7706;-1.6763;-0.9935;-2.8015;148.9655;0.06;-4.5;-40.37;255.05;-66.76;-103.84;0.0;59.893;12.841645;77.66422;677.74;3046.691378646719;0.0;29.032257;0.0;7 / 22;931;2016-11-30 16:02:49:668
-5.363;9.194;1.685;3.2688;9.2208;-0.681;-7.5592;1.6617;-1.7706;-1.6763;-0.9935;-2.8015;148.9655;0.06;-4.5;-40.37;255.05;-66.76;-103.84;0.0;59.893;12.841645;77.66422;677.74;3046.691378646719;0.0;29.032257;0.0;7 / 22;936;2016-11-30 16:02:49:673
-4.29;10.726;-0.306;3.01;9.3162;-0.5857;-6.9871;1.2531;-1.7025;-1.4892;-1.0878;-2.8157;148.9655;-0.62;-4.37;-41.06;255.05;-66.76;-103.84;0.0;59.893;12.841645;77.66422;677.74;3046.691378646719;0.0;29.032257;0.0;7 / 22;942;2016-11-30 16:02:49:679
-4.29;10.726;-0.306;3.01;9.3162;-0.5857;-6.9871;1.2531;-1.7025;-1.4892;-1.0878;-2.8157;148.9655;-0.62;-4.37;-41.06;255.05;-66.76;-103.84;0.0;59.893;12.841645;77.66422;677.74;3046.691378646719;0.0;29.032257;0.0;7 / 22;947;2016-11-30 16:02:49:684
-4.29;10.726;-0.306;3.01;9.3162;-0.5857;-6.9871;1.2531;-1.7025;-1.4892;-1.0878;-2.8157;148.9655;-0.62;-4.37;-41.06;255.05;-66.76;-103.84;0.0;59.893;12.841645;77.66422;677.74;3046.691378646719;0.0;29.032257;0.0;7 / 22;952;2016-11-30 16:02:49:689
-4.29;10.726;-0.306;3.01;9.3162;-0.5857;-6.9871;1.2531;-1.7025;-1.4892;-1.0878;-2.8157;148.9655;-0.62;-4.37;-41.06;255.05;-66.76;-103.84;0.0;59.893;12.841645;77.66422;677.74;3046.691378646719;0.0;29.032257;0.0;7 / 22;957;2016-11-30 16:02:49:694
-4.29;10.726;-0.306;2.4789;9.4796;-0.4086;-5.9929;1.2531;0.1089;-1.3341;-1.2122;-2.9381;148.9655;-0.62;-4.19;-40.94;255.05;-66.76;-103.84;0.0;59.893;12.841645;77.66422;677.74;3046.691378646719;0.0;29.032257;0.0;7 / 22;961;2016-11-30 16:02:49:698
-3.064;12.105;0.612;2.4789;9.4796;-0.4086;-5.9929;1.2531;0.1089;-1.3341;-1.2122;-2.9381;148.9655;-0.62;-4.19;-40.94;255.05;-66.76;-103.84;0.0;59.893;12.841645;77.66422;677.74;3046.691378646719;0.0;29.032257;0.0;7 / 22;966;2016-11-30 16:02:49:703
-3.064;12.105;0.612;2.4789;9.4796;-0.4086;-5.9929;1.2531;0.1089;-1.3341;-1.2122;-2.9381;148.9655;-0.62;-4.19;-40.94;255.05;-66.76;-103.84;0.0;59.893;12.841645;77.66422;677.74;3046.691378646719;0.0;29.032257;0.0;7 / 22;971;2016-11-30 16:02:49:708
-3.064;12.105;0.612;2.4789;9.4796;-0.4086;-5.9929;1.2531;0.1089;-1.3341;-1.2122;-2.9381;148.9655;-0.62;-4.19;-40.94;255.05;-66.76;-103.84;0.0;59.893;12.841645;77.66422;677.74;3046.691378646719;0.0;29.032257;0.0;7 / 22;977;2016-11-30 16:02:49:714
-3.064;12.105;0.612;2.2201;9.5477;-0.2996;-5.2846;2.5606;0.8989;-1.3676;-1.1061;-2.6398;148.9655;-0.81;-4.69;-40.75;260.53;-75.16;-99.36;0.0;59.893;12.841645;77.66422;677.74;3046.691378646719;0.0;29.032257;0.0;7 / 22;982;2016-11-30 16:02:49:719
-1.072;15.323;1.225;2.2201;9.5477;-0.2996;-5.2846;2.5606;0.8989;-1.3676;-1.1061;-2.6398;148.9655;-0.81;-4.69;-40.75;260.53;-75.16;-99.36;0.0;59.893;12.841645;77.66422;677.74;3046.691378646719;0.0;29.032257;0.0;7 / 22;987;2016-11-30 16:02:49:724
-1.072;15.323;1.225;2.2201;9.5477;-0.2996;-5.2846;2.5606;0.8989;-0.9417;-0.8312;-1.967;148.9655;-0.81;-4.69;-40.75;260.53;-75.16;-99.36;0.0;59.893;12.841645;77.66422;677.74;3046.691378646719;0.0;29.032257;0.0;7 / 22;992;2016-11-30 16:02:49:729
-1.072;15.323;1.225;2.2201;9.5477;-0.2996;-5.2846;2.5606;0.8989;-0.9417;-0.8312;-1.967;148.9655;-0.81;-4.69;-40.75;260.53;-75.16;-99.36;0.0;59.893;12.841645;77.66422;677.74;3046.691378646719;0.0;29.032257;0.0;7 / 22;997;2016-11-30 16:02:49:734
-1.685;13.791;0.153;1.9749;9.6022;-0.2043;-2.8875;5.8839;1.2667;-0.9417;-0.8312;-1.967;148.9655;-0.12;-4.06;-40.75;260.53;-75.16;-99.36;0.0;59.893;12.841645;77.66422;677.74;3046.691378646719;0.0;29.032257;0.0;7 / 22;1002;2016-11-30 16:02:49:739
-1.685;13.791;0.153;1.9749;9.6022;-0.2043;-2.8875;5.8839;1.2667;-0.9417;-0.8312;-1.967;148.9655;-0.12;-4.06;-40.75;260.53;-75.16;-99.36;0.0;59.893;12.841645;77.66422;677.74;3046.691378646719;0.0;29.032257;0.0;7 / 22;1006;2016-11-30 16:02:49:743
-1.685;13.791;0.153;1.9749;9.6022;-0.2043;-2.8875;5.8839;1.2667;-0.9417;-0.8312;-1.967;148.9655;-0.12;-4.06;-40.75;260.53;-75.16;-99.36;0.0;59.893;12.841645;77.66422;677.74;3046.691378646719;0.0;29.032257;0.0;7 / 22;1011;2016-11-30 16:02:49:748
-1.685;13.791;0.153;1.9749;9.6022;-0.2043;-2.8875;5.8839;1.2667;-0.9417;-0.8312;-1.967;148.9655;-0.12;-4.06;-40.75;260.53;-75.16;-99.36;0.0;59.893;12.841645;77.66422;677.74;3046.691378646719;0.0;29.032257;0.0;7 / 22;1016;2016-11-30 16:02:49:753
-1.992;13.484;0.459;1.185;9.7384;0.0272;-3.1735;3.7455;0.4222;-0.7328;-0.8378;-2.1007;148.9655;-0.37;-4.06;-40.06;263.06;-78.32;-95.91;0.0;59.893;12.841645;77.66422;677.74;3046.691378646719;0.0;29.032257;0.0;7 / 22;1021;2016-11-30 16:02:49:758
-1.992;13.484;0.459;1.185;9.7384;0.0272;-3.1735;3.7455;0.4222;-0.7328;-0.8378;-2.1007;148.9655;-0.37;-4.06;-40.06;263.06;-78.32;-95.91;0.0;59.893;12.841645;77.66422;677.74;3046.691378646719;0.0;29.032257;0.0;7 / 22;1027;2016-11-30 16:02:49:764
-1.992;13.484;0.459;1.185;9.7384;0.0272;-3.1735;3.7455;0.4222;-0.7328;-0.8378;-2.1007;148.9655;-0.37;-4.06;-40.06;263.06;-78.32;-95.91;0.0;59.893;12.841645;77.66422;677.74;3046.691378646719;0.0;29.032257;0.0;7 / 22;1032;2016-11-30 16:02:49:769
-1.992;13.484;0.459;1.185;9.7384;0.0272;-3.1735;3.7455;0.4222;-0.7328;-0.8378;-2.1007;148.9655;-0.37;-4.06;-40.06;263.06;-78.32;-95.91;0.0;59.893;12.841645;77.66422;677.74;3046.691378646719;0.0;29.032257;0.0;7 / 22;1037;2016-11-30 16:02:49:774
-1.992;13.484;0.459;1.185;9.7384;0.0272;-3.1735;3.7455;0.4222;-0.7328;-0.8378;-2.1007;148.9655;-0.37;-4.06;-40.06;263.06;-78.32;-95.91;0.0;59.893;12.841645;77.66422;677.74;3046.691378646719;0.0;29.032257;0.0;7 / 22;1042;2016-11-30 16:02:49:779
-2.145;13.331;0.0;0.7491;9.7793;0.1226;-2.8875;3.5549;-0.1226;-0.4445;-0.979;-2.1743;148.9655;0.44;-3.81;-39.19;263.06;-78.32;-95.91;0.0;65.406;12.841645;77.66422;677.74;3046.691378646719;0.0;29.032257;0.0;7 / 22;1047;2016-11-30 16:02:49:784
-2.145;13.331;0.0;0.7491;9.7793;0.1226;-2.8875;3.5549;-0.1226;-0.4445;-0.979;-2.1743;148.9655;0.44;-3.81;-39.19;263.06;-78.32;-95.91;0.0;65.406;12.841645;77.66422;677.74;3046.691378646719;0.0;29.032257;0.0;7 / 22;1051;2016-11-30 16:02:49:788
-2.145;13.331;0.0;0.7491;9.7793;0.1226;-2.8875;3.5549;-0.1226;-0.4445;-0.979;-2.1743;148.9655;0.44;-3.81;-39.19;263.06;-78.32;-95.91;0.0;65.406;12.841645;77.66422;677.74;3046.691378646719;0.0;29.032257;0.0;7 / 22;1057;2016-11-30 16:02:49:794
-1.225;13.331;-0.766;0.3677;9.8065;0.1907;-2.043;3.5276;-0.79;-0.3398;-0.9534;-2.1686;148.9655;0.75;-3.75;-38.81;277.35;-85.56;-80.71;0.0;65.406;12.841645;77.66422;677.74;3046.691378646719;0.0;29.032257;0.0;7 / 22;1062;2016-11-30 16:02:49:799
-1.225;13.331;-0.766;0.3677;9.8065;0.1907;-2.043;3.5276;-0.79;-0.3398;-0.9534;-2.1686;148.9655;0.75;-3.75;-38.81;277.35;-85.56;-80.71;0.0;65.406;12.841645;77.66422;677.74;3046.691378646719;0.0;29.032257;0.0;7 / 22;1067;2016-11-30 16:02:49:804
-1.225;13.331;-0.766;0.3677;9.8065;0.1907;-2.043;3.5276;-0.79;-0.3398;-0.9534;-2.1686;148.9655;0.75;-3.75;-38.81;277.35;-85.56;-80.71;0.0;65.406;12.841645;77.66422;677.74;3046.691378646719;0.0;29.032257;0.0;7 / 22;1072;2016-11-30 16:02:49:809
-0.459;11.645;-1.379;0.3677;9.8065;0.1907;-2.043;3.5276;-0.79;-0.3398;-0.9534;-2.1686;148.9655;0.75;-3.75;-38.81;277.35;-85.56;-80.71;0.0;65.406;12.841645;77.66422;677.74;3046.691378646719;0.0;29.032257;0.0;7 / 22;1077;2016-11-30 16:02:49:814
-0.459;11.645;-1.379;-0.0545;9.8065;0.2179;-0.395;1.8387;-1.5936;-0.1481;-0.8342;-2.1879;148.9655;0.94;-3.37;-38.94;277.35;-85.56;-80.71;0.0;65.406;12.841645;77.66422;677.74;3046.691378646719;0.0;29.032257;0.0;7 / 22;1082;2016-11-30 16:02:49:819
-0.459;11.645;-1.379;-0.0545;9.8065;0.2179;-0.395;1.8387;-1.5936;-0.1481;-0.8342;-2.1879;148.9655;0.94;-3.37;-38.94;277.35;-85.56;-80.71;0.0;65.406;12.841645;77.66422;677.74;3046.691378646719;0.0;29.032257;0.0;7 / 22;1087;2016-11-30 16:02:49:824
-0.459;9.04;-1.225;-0.0545;9.8065;0.2179;-0.395;1.8387;-1.5936;-0.1481;-0.8342;-2.1879;148.9655;0.94;-3.37;-38.94;277.35;-85.56;-80.71;0.0;65.406;12.841645;77.66422;677.74;3046.691378646719;0.0;29.032257;0.0;7 / 22;1092;2016-11-30 16:02:49:829
2.298;9.04;-1.225;-0.0545;9.8065;0.2179;-0.395;1.8387;-1.5936;-0.1481;-0.8342;-2.1879;148.9655;0.94;-3.37;-38.94;277.35;-85.56;-80.71;0.0;65.406;12.841645;77.66422;677.74;3046.691378646719;0.0;29.032257;0.0;7 / 22;1097;2016-11-30 16:02:49:834
2.298;9.04;-1.225;-0.4086;9.8065;0.2315;2.6968;-0.7627;-1.4574;-0.0174;-0.7581;-2.0726;148.9655;0.88;-3.62;-38.81;12.6;-88.69;14.04;0.0;65.406;12.841645;77.66422;677.74;3046.691378646719;0.0;29.032257;0.0;7 / 22;1101;2016-11-30 16:02:49:838
2.298;9.04;-1.225;-0.4086;9.8065;0.2315;2.6968;-0.7627;-1.4574;-0.0174;-0.7581;-2.0726;148.9655;0.88;-3.62;-38.81;12.6;-88.69;14.04;0.0;65.406;12.841645;77.66422;677.74;3046.691378646719;0.0;29.032257;0.0;7 / 22;1107;2016-11-30 16:02:49:844
2.298;9.04;-1.225;-0.4086;9.8065;0.2315;2.6968;-0.7627;-1.4574;-0.0174;-0.7581;-2.0726;148.9655;0.88;-3.62;-38.81;12.6;-88.69;14.04;0.0;65.406;12.841645;77.66422;677.74;3046.691378646719;0.0;29.032257;0.0;7 / 22;1112;2016-11-30 16:02:49:849
9.194;0.306;-1.992;-0.4086;9.8065;0.2315;2.6968;-0.7627;-1.4574;-0.0174;-0.7581;-2.0726;148.9655;0.88;-3.62;-38.81;12.6;-88.69;14.04;0.0;65.406;12.841645;77.66422;677.74;3046.691378646719;0.0;29.032257;0.0;7 / 22;1117;2016-11-30 16:02:49:854
9.194;0.306;-1.992;-0.5584;9.7929;0.177;9.752;-9.4932;-2.1656;0.3076;-0.4404;-0.576;148.9655;0.94;-3.56;-38.75;12.6;-88.69;14.04;0.0;65.406;12.841645;77.66422;677.74;3046.691378646719;0.0;29.032257;0.0;7 / 22;1122;2016-11-30 16:02:49:859
9.194;0.306;-1.992;-0.5584;9.7929;0.177;9.752;-9.4932;-2.1656;0.3076;-0.4404;-0.576;148.9655;0.94;-3.56;-38.75;12.6;-88.69;14.04;0.0;65.406;12.841645;77.66422;677.74;3046.691378646719;0.0;29.032257;0.0;7 / 22;1126;2016-11-30 16:02:49:863
-1.532;4.443;-1.685;-0.5857;9.7929;0.1498;3.9498;-9.7929;-0.9125;0.3553;-0.3466;-0.2572;148.9655;0.38;-3.75;-39.19;12.6;-88.69;14.04;0.0;65.406;12.841645;77.66422;677.74;3046.691378646719;0.0;29.032257;0.0;7 / 22;1131;2016-11-30 16:02:49:868
-1.532;4.443;-1.685;-0.5857;9.7929;0.1498;3.9498;-9.7929;-0.9125;0.3553;-0.3466;-0.2572;148.9655;0.38;-3.75;-39.19;12.6;-88.69;14.04;0.0;65.406;12.841645;77.66422;677.74;3046.691378646719;0.0;29.032257;0.0;7 / 22;1136;2016-11-30 16:02:49:873
-1.532;4.443;-1.685;-0.5857;9.7929;0.1498;3.9498;-9.7929;-0.9125;0.3553;-0.3466;-0.2572;148.9655;0.38;-3.75;-39.19;12.6;-88.69;14.04;0.0;65.406;12.841645;77.66422;677.74;3046.691378646719;0.0;29.032257;0.0;7 / 22;1141;2016-11-30 16:02:49:878
-1.532;4.443;-1.685;-0.5857;9.7929;0.1498;3.9498;-9.7929;-0.9125;0.3553;-0.3466;-0.2572;148.9655;0.38;-3.75;-39.19;12.6;-88.69;14.04;0.0;65.406;12.841645;77.66422;677.74;3046.691378646719;0.0;29.032257;0.0;7 / 22;1146;2016-11-30 16:02:49:883
-1.532;4.443;-1.685;-0.6265;9.7929;0.0817;-1.9749;-2.2882;-0.5312;0.4276;-0.2782;-0.1912;148.9655;-0.31;-4.81;-39.81;76.11;-86.47;75.65;0.0;65.406;12.841645;77.66422;677.74;3046.691378646719;0.0;29.032257;0.0;7 / 22;1152;2016-11-30 16:02:49:889
1.072;10.879;0.153;-0.6265;9.7929;0.0817;-1.9749;-2.2882;-0.5312;0.4276;-0.2782;-0.1912;148.9655;-0.31;-4.81;-39.81;76.11;-86.47;75.65;0.0;65.406;12.841645;77.66422;677.74;3046.691378646719;0.0;29.032257;0.0;7 / 22;1156;2016-11-30 16:02:49:893
1.072;10.879;0.153;-0.6265;9.7929;0.0817;-1.9749;-2.2882;-0.5312;0.5157;-0.2072;0.1418;148.9655;-0.31;-4.81;-39.81;76.11;-86.47;75.65;0.0;65.406;12.841645;77.66422;677.74;3046.691378646719;0.0;29.032257;0.0;7 / 22;1161;2016-11-30 16:02:49:898
1.072;10.879;0.153;-0.6265;9.7929;0.0817;-1.9749;-2.2882;-0.5312;0.5157;-0.2072;0.1418;148.9655;-0.31;-4.81;-39.81;76.11;-86.47;75.65;0.0;65.406;12.841645;77.66422;677.74;3046.691378646719;0.0;29.032257;0.0;7 / 22;1166;2016-11-30 16:02:49:903
1.532;13.178;1.992;-0.5857;9.7929;-0.0408;2.1111;3.3914;2.0294;0.4251;-0.1857;0.4107;148.9655;-0.81;-5.12;-40.5;76.11;-86.47;75.65;0.0;65.406;12.841645;77.66422;677.74;3046.691378646719;0.0;29.032257;0.0;7 / 22;1171;2016-11-30 16:02:49:908
1.532;13.178;1.992;-0.5857;9.7929;-0.0408;2.1111;3.3914;2.0294;0.4251;-0.1857;0.4107;148.9655;-0.81;-5.12;-40.5;76.11;-86.47;75.65;0.0;65.406;12.841645;77.66422;677.74;3046.691378646719;0.0;29.032257;0.0;7 / 22;1177;2016-11-30 16:02:49:914
1.073;12.106;1.993;-0.5857;9.7929;-0.0408;2.1111;3.3914;2.0294;0.4251;-0.1857;0.4107;148.9655;-0.81;-5.12;-40.5;95.84;-86.57;93.99;0.0;65.406;12.841645;77.66422;677.74;3046.691378646719;0.0;29.032257;0.0;7 / 22;1182;2016-11-30 16:02:49:919
1.073;12.106;1.993;-0.5857;9.7929;-0.0408;2.1111;3.3914;2.0294;0.4251;-0.1857;0.4107;148.9655;-0.81;-5.12;-40.5;95.84;-86.57;93.99;0.0;65.406;12.841645;77.66422;677.74;3046.691378646719;0.0;29.032257;0.0;7 / 22;1187;2016-11-30 16:02:49:924
1.073;12.106;1.993;-0.5857;9.7929;-0.0408;2.1111;3.3914;2.0294;0.4251;-0.1857;0.4107;148.9655;-0.81;-5.12;-40.5;95.84;-86.57;93.99;0.0;65.406;12.841645;77.66422;677.74;3046.691378646719;0.0;29.032257;0.0;7 / 22;1192;2016-11-30 16:02:49:929
1.073;12.106;1.993;-0.5857;9.7929;-0.0408;2.1111;3.3914;2.0294;0.4251;-0.1857;0.4107;148.9655;-0.81;-5.12;-40.5;95.84;-86.57;93.99;0.0;65.406;12.841645;77.66422;677.74;3046.691378646719;0.0;29.032257;0.0;7 / 22;1197;2016-11-30 16:02:49:934
-0.152;9.654;0.307;-0.4631;9.8065;-0.0817;1.0624;1.076;0.681;0.1718;-0.117;0.7699;148.9655;-1.44;-5.06;-42.06;95.84;-86.57;93.99;0.0;65.406;12.841645;77.66422;677.74;3046.691378646719;0.0;29.032257;0.0;7 / 22;1202;2016-11-30 16:02:49:939
-0.152;9.654;0.307;-0.4631;9.8065;-0.0817;1.0624;1.076;0.681;0.1718;-0.117;0.7699;145.8621;-1.44;-5.06;-42.06;95.84;-86.57;93.99;0.0;65.406;12.841645;77.66422;677.74;3046.691378646719;0.0;29.032257;0.0;7 / 22;1207;2016-11-30 16:02:49:944
-0.152;9.654;0.307;-0.4631;9.8065;-0.0817;1.0624;1.076;0.681;0.1241;-0.0624;0.9187;145.8621;-1.44;-5.06;-42.06;95.84;-86.57;93.99;0.0;65.406;12.841645;77.66422;677.74;3046.691378646719;0.0;29.032257;0.0;7 / 22;1212;2016-11-30 16:02:49:949
-0.612;8.887;-0.612;-0.4631;9.8065;-0.0817;1.0624;1.076;0.681;0.1241;-0.0624;0.9187;145.8621;-1.44;-5.06;-42.06;95.84;-86.57;93.99;0.0;65.406;12.841645;77.66422;677.74;3046.691378646719;0.0;29.032257;0.0;7 / 22;1217;2016-11-30 16:02:49:954
-0.612;8.887;-0.612;-0.2179;9.8065;-0.1226;-0.5448;-1.076;-0.79;0.1366;-0.0704;0.9577;145.8621;-1.75;-5.5;-42.87;102.97;-87.25;100.01;0.0;65.406;12.841645;77.66422;677.74;3046.691378646719;0.0;29.032257;0.0;7 / 22;1222;2016-11-30 16:02:49:959
-0.612;8.887;-0.612;-0.2179;9.8065;-0.1226;-0.5448;-1.076;-0.79;0.1366;-0.0704;0.9577;145.8621;-1.75;-5.5;-42.87;102.97;-87.25;100.01;0.0;65.406;12.841645;77.66422;677.74;3046.691378646719;0.0;29.032257;0.0;7 / 22;1227;2016-11-30 16:02:49:964
-0.919;8.581;-1.532;-0.2179;9.8065;-0.1226;-0.5448;-1.076;-0.79;0.1366;-0.0704;0.9577;145.8621;-1.75;-5.5;-42.87;102.97;-87.25;100.01;0.0;65.406;12.841645;77.66422;677.74;3046.691378646719;0.0;29.032257;0.0;7 / 22;1231;2016-11-30 16:02:49:968
-0.919;8.581;-1.532;-0.2179;9.8065;-0.1226;-0.5448;-1.076;-0.79;0.1366;-0.0704;0.9577;145.8621;-1.75;-5.5;-42.87;102.97;-87.25;100.01;0.0;65.406;12.841645;77.66422;677.74;3046.691378646719;0.0;29.032257;0.0;7 / 22;1236;2016-11-30 16:02:49:973
-0.459;9.04;-1.072;-0.0545;9.8065;-0.1634;-0.7082;-0.9262;-1.2122;0.2394;-0.0903;0.847;145.8621;-1.56;-5.5;-42.69;102.97;-87.25;100.01;0.0;65.406;12.841645;77.66422;677.74;3046.691378646719;0.0;29.032257;0.0;7 / 22;1242;2016-11-30 16:02:49:979
-0.459;9.04;-1.072;-0.0545;9.8065;-0.1634;-0.7082;-0.9262;-1.2122;0.2394;-0.0903;0.847;145.8621;-1.56;-5.5;-42.69;102.97;-87.25;100.01;0.0;65.406;12.841645;77.66422;677.74;3046.691378646719;0.0;29.032257;0.0;7 / 22;1247;2016-11-30 16:02:49:984
-0.459;9.04;-1.072;-0.0545;9.8065;-0.1634;-0.7082;-0.9262;-1.2122;0.2394;-0.0903;0.847;145.8621;-1.56;-5.5;-42.69;102.97;-87.25;100.01;0.0;65.406;12.841645;77.66422;677.74;3046.691378646719;0.0;29.032257;0.0;7 / 22;1251;2016-11-30 16:02:49:988
-0.612;9.5;-0.306;-0.0545;9.8065;-0.1634;-0.7082;-0.9262;-1.2122;0.2394;-0.0903;0.847;145.8621;-1.56;-5.5;-42.69;102.97;-87.25;100.01;0.0;65.406;12.841645;77.66422;677.74;3046.691378646719;0.0;29.032257;0.0;7 / 22;1256;2016-11-30 16:02:49:993
-0.612;9.5;-0.306;-0.0545;9.8065;-0.1634;-0.7082;-0.9262;-1.2122;0.2394;-0.0903;0.847;145.8621;-1.56;-5.5;-42.69;102.97;-87.25;100.01;0.0;65.406;12.841645;77.66422;677.74;3046.691378646719;0.0;29.032257;0.0;7 / 22;1261;2016-11-30 16:02:49:998
-0.612;9.5;-0.306;-0.0545;9.8065;-0.1634;-0.7082;-0.9262;-1.2122;0.2394;-0.0903;0.847;145.8621;-1.56;-5.5;-42.69;102.97;-87.25;100.01;0.0;65.406;12.841645;77.66422;677.74;3046.691378646719;0.0;29.032257;0.0;7 / 22;1266;2016-11-30 16:02:50:003
-0.459;9.653;0.153;0.0817;9.8065;-0.2043;-0.681;-0.3133;0.0545;0.2413;-0.1366;0.7849;145.8621;-2.44;-4.94;-43.06;164.26;-88.99;161.57;0.0;65.406;12.841645;77.66422;677.74;3046.691378646719;0.0;29.032257;0.0;7 / 22;1271;2016-11-30 16:02:50:008
-0.459;9.653;0.153;0.0817;9.8065;-0.2043;-0.681;-0.3133;0.0545;0.2413;-0.1366;0.7849;145.8621;-2.44;-4.94;-43.06;164.26;-88.99;161.57;0.0;65.406;12.841645;77.66422;677.74;3046.691378646719;0.0;29.032257;0.0;7 / 22;1276;2016-11-30 16:02:50:013
-1.072;10.113;0.766;0.0817;9.8065;-0.2043;-0.681;-0.3133;0.0545;0.2239;-0.1868;0.7655;145.8621;-2.44;-4.94;-43.06;164.26;-88.99;161.57;0.0;65.406;12.841645;77.66422;677.74;3046.691378646719;0.0;29.032257;0.0;7 / 22;1281;2016-11-30 16:02:50:018
-1.072;10.113;0.766;0.0817;9.8065;-0.2043;-0.681;-0.3133;0.0545;0.2239;-0.1868;0.7655;145.8621;-2.44;-4.94;-43.06;164.26;-88.99;161.57;0.0;65.406;12.841645;77.66422;677.74;3046.691378646719;0.0;29.032257;0.0;7 / 22;1286;2016-11-30 16:02:50:023
-1.072;10.113;0.766;0.2996;9.8065;-0.2724;-1.362;0.2996;1.0351;0.2239;-0.1868;0.7655;145.8621;-2.0;-5.06;-41.75;164.26;-88.99;161.57;0.0;65.406;12.841645;77.66422;677.74;3046.691378646719;0.0;29.032257;0.0;7 / 22;1291;2016-11-30 16:02:50:028
-1.072;10.113;0.766;0.2996;9.8065;-0.2724;-1.362;0.2996;1.0351;0.2239;-0.1868;0.7655;145.8621;-2.0;-5.06;-41.75;164.26;-88.99;161.57;0.0;65.406;12.841645;77.66422;677.74;3046.691378646719;0.0;29.032257;0.0;7 / 22;1296;2016-11-30 16:02:50:033
-1.072;10.266;1.072;0.3541;9.8065;-0.286;-1.4165;0.4631;1.1986;0.1985;-0.1879;0.7317;145.8621;-2.44;-5.5;-41.75;164.26;-88.99;161.57;0.0;65.406;12.841645;77.66422;677.74;3046.691378646719;0.0;29.032257;0.0;7 / 22;1302;2016-11-30 16:02:50:039
-1.072;10.266;1.072;0.3541;9.8065;-0.286;-1.4165;0.4631;1.1986;0.1985;-0.1879;0.7317;145.8621;-2.44;-5.5;-41.75;164.26;-88.99;161.57;0.0;65.406;12.841645;77.66422;677.74;3046.691378646719;0.0;29.032257;0.0;7 / 22;1307;2016-11-30 16:02:50:044
-1.072;10.266;1.072;0.3541;9.8065;-0.286;-1.4165;0.4631;1.1986;0.1985;-0.1879;0.7317;145.8621;-2.44;-5.5;-41.75;164.26;-88.99;161.57;0.0;65.406;12.841645;77.66422;677.74;3046.691378646719;0.0;29.032257;0.0;7 / 22;1312;2016-11-30 16:02:50:049
-1.072;10.266;1.072;0.3541;9.8065;-0.286;-1.4165;0.4631;1.1986;0.1985;-0.1879;0.7317;145.8621;-2.44;-5.5;-41.75;164.26;-88.99;161.57;0.0;65.406;12.841645;77.66422;677.74;3046.691378646719;0.0;29.032257;0.0;7 / 22;1317;2016-11-30 16:02:50:054
-1.072;10.266;1.072;0.3541;9.8065;-0.286;-1.4165;0.4631;1.1986;0.1985;-0.1879;0.7317;145.8621;-2.44;-5.5;-41.75;164.26;-88.99;161.57;0.0;65.406;12.841645;77.66422;677.74;3046.691378646719;0.0;29.032257;0.0;7 / 22;1322;2016-11-30 16:02:50:059
-0.919;10.419;1.379;0.5176;9.7929;-0.2996;-1.2803;0.4767;1.6753;-0.078;-0.2089;0.4971;145.8621;-2.0;-5.81;-41.12;233.58;-87.34;-128.93;0.0;65.406;12.841645;77.66422;677.74;3046.691378646719;0.0;29.032257;0.0;7 / 22;1327;2016-11-30 16:02:50:064
-0.919;10.419;1.379;0.5176;9.7929;-0.2996;-1.2803;0.4767;1.6753;-0.078;-0.2089;0.4971;145.8621;-2.0;-5.81;-41.12;233.58;-87.34;-128.93;0.0;65.406;12.841645;77.66422;677.74;3046.691378646719;0.0;29.032257;0.0;7 / 22;1332;2016-11-30 16:02:50:069
-0.919;10.419;1.379;0.5176;9.7929;-0.2996;-1.2803;0.4767;1.6753;-0.078;-0.2089;0.4971;145.8621;-2.0;-5.81;-41.12;233.58;-87.34;-128.93;0.0;65.406;12.841645;77.66422;677.74;3046.691378646719;0.0;29.032257;0.0;7 / 22;1337;2016-11-30 16:02:50:074
-0.459;10.573;1.685;0.395;9.8065;-0.2043;-0.8444;0.7627;1.8796;-0.6422;-0.4022;-0.8934;145.8621;-2.0;-5.56;-41.12;233.58;-87.34;-128.93;0.0;65.406;12.841645;77.66422;677.74;3046.691378646719;0.0;29.032257;0.0;7 / 22;1342;2016-11-30 16:02:50:079
-0.459;10.573;1.685;0.395;9.8065;-0.2043;-0.8444;0.7627;1.8796;-0.6422;-0.4022;-0.8934;145.8621;-2.0;-5.56;-41.12;233.58;-87.34;-128.93;0.0;65.406;12.841645;77.66422;677.74;3046.691378646719;0.0;29.032257;0.0;7 / 22;1346;2016-11-30 16:02:50:083
-0.459;10.573;1.685;0.2996;9.8065;-0.1498;-0.8989;0.7627;1.8251;-0.6796;-0.4044;-0.9697;145.8621;-1.94;-5.81;-40.87;233.58;-87.34;-128.93;0.0;65.406;12.841645;77.66422;677.74;3046.691378646719;0.0;29.032257;0.0;7 / 22;1352;2016-11-30 16:02:50:089
-0.459;10.573;1.685;0.2996;9.8065;-0.1498;-0.8989;0.7627;1.8251;-0.6796;-0.4044;-0.9697;145.8621;-1.94;-5.81;-40.87;233.58;-87.34;-128.93;0.0;65.406;12.841645;77.66422;677.74;3046.691378646719;0.0;29.032257;0.0;7 / 22;1357;2016-11-30 16:02:50:094
-0.459;10.573;1.685;0.2996;9.8065;-0.1498;-0.8989;0.7627;1.8251;-0.6796;-0.4044;-0.9697;145.8621;-1.94;-5.81;-40.87;233.58;-87.34;-128.93;0.0;65.406;12.841645;77.66422;677.74;3046.691378646719;0.0;29.032257;0.0;7 / 22;1361;2016-11-30 16:02:50:098
-0.612;10.726;1.532;0.2996;9.8065;-0.1498;-0.8989;0.7627;1.8251;-0.6796;-0.4044;-0.9697;145.8621;-1.94;-5.81;-40.87;233.58;-87.34;-128.93;0.0;65.406;12.841645;77.66422;677.74;3046.691378646719;0.0;29.032257;0.0;7 / 22;1367;2016-11-30 16:02:50:104
-0.612;10.726;1.532;0.1634;9.8065;-0.0272;-0.7627;0.9262;1.5527;-0.6992;-0.3349;-0.7259;145.8621;-2.19;-6.06;-40.69;245.98;-88.04;-116.56;0.0;65.192;12.841645;77.66422;677.74;3046.691378646719;0.0;29.032257;0.0;7 / 22;1372;2016-11-30 16:02:50:109
-0.612;10.726;1.532;0.1634;9.8065;-0.0272;-0.7627;0.9262;1.5527;-0.6992;-0.3349;-0.7259;145.8621;-2.19;-6.06;-40.69;245.98;-88.04;-116.56;0.0;65.192;12.841645;77.66422;677.74;3046.691378646719;0.0;29.032257;0.0;7 / 22;1377;2016-11-30 16:02:50:114
-0.919;10.879;1.225;0.1634;9.8065;-0.0272;-0.7627;0.9262;1.5527;-0.6992;-0.3349;-0.7259;145.8621;-2.19;-6.06;-40.69;245.98;-88.04;-116.56;0.0;65.192;12.841645;77.66422;677.74;3046.691378646719;0.0;29.032257;0.0;7 / 22;1382;2016-11-30 16:02:50:119
-0.919;10.879;1.225;0.1634;9.8065;-0.0272;-0.7627;0.9262;1.5527;-0.6992;-0.3349;-0.7259;145.8621;-2.19;-6.06;-40.69;245.98;-88.04;-116.56;0.0;65.192;12.841645;77.66422;677.74;3046.691378646719;0.0;29.032257;0.0;7 / 22;1387;2016-11-30 16:02:50:124
-0.919;10.879;1.225;0.1634;9.8065;-0.0272;-0.7627;0.9262;1.5527;-0.6992;-0.3349;-0.7259;145.8621;-2.19;-6.06;-40.69;245.98;-88.04;-116.56;0.0;65.192;12.841645;77.66422;677.74;3046.691378646719;0.0;29.032257;0.0;7 / 22;1392;2016-11-30 16:02:50:129
-1.532;10.726;0.766;0.0545;9.8065;0.0953;-1.2803;0.9262;1.1305;-0.6425;-0.3523;-0.6166;145.8621;-2.87;-5.87;-41.0;245.98;-88.04;-116.56;0.0;65.192;12.841645;77.66422;677.74;3046.691378646719;0.0;29.032257;0.0;7 / 22;1396;2016-11-30 16:02:50:133
-1.532;10.726;0.766;0.0545;9.8065;0.0953;-1.2803;0.9262;1.1305;-0.6425;-0.3523;-0.6166;145.8621;-2.87;-5.87;-41.0;245.98;-88.04;-116.56;0.0;65.192;12.841645;77.66422;677.74;3046.691378646719;0.0;29.032257;0.0;7 / 22;1401;2016-11-30 16:02:50:138
-1.532;10.726;0.766;0.0545;9.8065;0.0953;-1.2803;0.9262;1.1305;-0.6425;-0.3523;-0.6166;145.8621;-2.87;-5.87;-41.0;245.98;-88.04;-116.56;0.0;65.192;12.841645;77.66422;677.74;3046.691378646719;0.0;29.032257;0.0;7 / 22;1406;2016-11-30 16:02:50:143
-1.532;10.726;0.766;-0.0681;9.8065;0.1907;-2.0703;0.9262;-0.0408;-0.5157;-0.3409;-0.6526;145.8621;-2.81;-6.0;-40.19;334.5;-89.36;-29.74;0.0;65.192;12.841645;77.66422;677.74;3046.691378646719;0.0;29.032257;0.0;7 / 22;1412;2016-11-30 16:02:50:149
-2.298;10.726;-0.306;-0.0681;9.8065;0.1907;-2.0703;0.9262;-0.0408;-0.5157;-0.3409;-0.6526;145.8621;-2.81;-6.0;-40.19;334.5;-89.36;-29.74;0.0;65.192;12.841645;77.66422;677.74;3046.691378646719;0.0;29.032257;0.0;7 / 22;1417;2016-11-30 16:02:50:154
-2.298;10.726;-0.306;-0.1226;9.8065;0.2315;-2.1656;0.9262;-0.5312;-0.4483;-0.3259;-0.7077;145.8621;-2.81;-6.0;-40.19;334.5;-89.36;-29.74;0.0;65.192;12.841645;77.66422;677.74;3046.691378646719;0.0;29.032257;0.0;7 / 22;1422;2016-11-30 16:02:50:159
-2.298;10.726;-0.306;-0.1226;9.8065;0.2315;-2.1656;0.9262;-0.5312;-0.4483;-0.3259;-0.7077;145.8621;-2.81;-6.0;-40.19;334.5;-89.36;-29.74;0.0;65.192;12.841645;77.66422;677.74;3046.691378646719;0.0;29.032257;0.0;7 / 22;1427;2016-11-30 16:02:50:164
-1.685;10.113;-1.532;-0.1226;9.8065;0.2315;-2.1656;0.9262;-0.5312;-0.4483;-0.3259;-0.7077;145.8621;-2.81;-6.0;-40.19;334.5;-89.36;-29.74;0.0;65.192;12.841645;77.66422;677.74;3046.691378646719;0.0;29.032257;0.0;7 / 22;1432;2016-11-30 16:02:50:169
-1.685;10.113;-1.532;-0.1226;9.8065;0.2315;-2.1656;0.9262;-0.5312;-0.4483;-0.3259;-0.7077;145.8621;-2.81;-6.0;-40.19;334.5;-89.36;-29.74;0.0;65.192;12.841645;77.66422;677.74;3046.691378646719;0.0;29.032257;0.0;7 / 22;1436;2016-11-30 16:02:50:173
-1.685;10.113;-1.532;-0.2588;9.8065;0.2996;-1.4165;0.2996;-1.8251;-0.3226;-0.315;-0.7513;145.8621;-3.31;-6.62;-40.19;334.5;-89.36;-29.74;0.0;65.192;12.841645;77.66422;677.74;3046.691378646719;0.0;29.032257;0.0;7 / 22;1441;2016-11-30 16:02:50:178
-1.685;10.113;-1.532;-0.2588;9.8065;0.2996;-1.4165;0.2996;-1.8251;-0.3226;-0.315;-0.7513;145.8621;-3.31;-6.62;-40.19;334.5;-89.36;-29.74;0.0;65.192;12.841645;77.66422;677.74;3046.691378646719;0.0;29.032257;0.0;7 / 22;1447;2016-11-30 16:02:50:184
-0.919;9.5;-2.145;-0.2588;9.8065;0.2996;-1.4165;0.2996;-1.8251;-0.2686;-0.3122;-0.7846;145.8621;-3.31;-6.62;-40.19;334.5;-89.36;-29.74;0.0;65.192;12.841645;77.66422;677.74;3046.691378646719;0.0;29.032257;0.0;7 / 22;1452;2016-11-30 16:02:50:189
-0.919;9.5;-2.145;-0.2588;9.8065;0.2996;-1.4165;0.2996;-1.8251;-0.2686;-0.3122;-0.7846;145.8621;-3.31;-6.62;-40.19;334.5;-89.36;-29.74;0.0;65.192;12.841645;77.66422;677.74;3046.691378646719;0.0;29.032257;0.0;7 / 22;1457;2016-11-30 16:02:50:194
-0.919;9.5;-2.145;-0.395;9.7929;0.3405;-0.5176;-0.2996;-2.4789;-0.186;-0.2953;-0.757;145.8621;-2.87;-8.81;-38.87;45.62;-87.69;40.81;0.0;65.192;12.841645;77.66422;677.74;3046.691378646719;0.0;29.032257;0.0;7 / 22;1462;2016-11-30 16:02:50:199
-0.919;9.5;-2.145;-0.395;9.7929;0.3405;-0.5176;-0.2996;-2.4789;-0.186;-0.2953;-0.757;145.8621;-2.87;-8.81;-38.87;45.62;-87.69;40.81;0.0;65.192;12.841645;77.66422;677.74;3046.691378646719;0.0;29.032257;0.0;7 / 22;1467;2016-11-30 16:02:50:204
-0.919;9.5;-2.145;-0.395;9.7929;0.3405;-0.5176;-0.2996;-2.4789;-0.186;-0.2953;-0.757;145.8621;-2.87;-8.81;-38.87;45.62;-87.69;40.81;0.0;65.192;12.841645;77.66422;677.74;3046.691378646719;0.0;29.032257;0.0;7 / 22;1472;2016-11-30 16:02:50:209
-0.919;9.5;-2.145;-0.395;9.7929;0.3405;-0.5176;-0.2996;-2.4789;-0.186;-0.2953;-0.757;145.8621;-2.87;-8.81;-38.87;45.62;-87.69;40.81;0.0;65.192;12.841645;77.66422;677.74;3046.691378646719;0.0;29.032257;0.0;7 / 22;1477;2016-11-30 16:02:50:214
0.306;9.04;-1.379;-0.5176;9.7929;0.3541;0.6674;-0.4495;-2.0294;-0.012;-0.2577;-0.6057;145.8621;-2.31;-9.37;-38.25;45.62;-87.69;40.81;0.0;65.192;12.841645;77.66422;677.74;3046.691378646719;0.0;29.032257;0.0;7 / 22;1482;2016-11-30 16:02:50:219
0.306;9.04;-1.379;-0.5176;9.7929;0.3541;0.6674;-0.4495;-2.0294;-0.012;-0.2577;-0.6057;145.8621;-2.31;-9.37;-38.25;45.62;-87.69;40.81;0.0;65.192;12.841645;77.66422;677.74;3046.691378646719;0.0;29.032257;0.0;7 / 22;1487;2016-11-30 16:02:50:224
0.306;9.04;-1.379;-0.5176;9.7929;0.3541;0.6674;-0.4495;-2.0294;0.0447;-0.2293;-0.4974;145.8621;-2.31;-9.37;-38.25;45.62;-87.69;40.81;0.0;65.192;12.841645;77.66422;677.74;3046.691378646719;0.0;29.032257;0.0;7 / 22;1492;2016-11-30 16:02:50:229
1.685;7.355;0.766;-0.5176;9.7929;0.3541;0.6674;-0.4495;-2.0294;0.0447;-0.2293;-0.4974;145.8621;-2.31;-9.37;-38.25;45.62;-87.69;40.81;0.0;65.192;12.841645;77.66422;677.74;3046.691378646719;0.0;29.032257;0.0;7 / 22;1497;2016-11-30 16:02:50:234
1.685;7.355;0.766;-0.6265;9.7929;0.3405;2.9147;-3.6638;1.9477;0.0199;-0.192;-0.3706;145.8621;-1.87;-11.0;-37.12;59.71;-86.34;55.62;0.0;65.192;12.841645;77.66422;677.74;3046.691378646719;0.0;29.032257;0.0;7 / 22;1502;2016-11-30 16:02:50:239
1.685;7.355;0.766;-0.6265;9.7929;0.3405;2.9147;-3.6638;1.9477;0.0199;-0.192;-0.3706;145.8621;-1.87;-11.0;-37.12;59.71;-86.34;55.62;0.0;65.192;12.841645;77.66422;677.74;3046.691378646719;0.0;29.032257;0.0;7 / 22;1507;2016-11-30 16:02:50:244
1.685;7.355;0.766;-0.6265;9.7929;0.3405;2.9147;-3.6638;1.9477;0.0199;-0.192;-0.3706;145.8621;-1.87;-11.0;-37.12;59.71;-86.34;55.62;0.0;65.192;12.841645;77.66422;677.74;3046.691378646719;0.0;29.032257;0.0;7 / 22;1512;2016-11-30 16:02:50:249
2.451;3.677;3.524;-0.6401;9.7929;0.3541;3.0918;-6.1154;3.1599;-0.138;-0.1734;-0.0949;21.6667;-1.87;-11.0;-37.12;59.71;-86.34;55.62;0.0;65.192;12.841645;77.66422;677.74;3046.691378646719;0.0;29.032257;0.0;7 / 22;1517;2016-11-30 16:02:50:254
2.451;3.677;3.524;-0.6401;9.7929;0.3541;3.0918;-6.1154;3.1599;-0.138;-0.1734;-0.0949;21.6667;-1.87;-11.0;-37.12;59.71;-86.34;55.62;0.0;65.192;12.841645;77.66422;677.74;3046.691378646719;0.0;29.032257;0.0;7 / 22;1522;2016-11-30 16:02:50:259
2.451;3.677;3.524;-0.6401;9.7929;0.3541;3.0918;-6.1154;3.1599;-0.138;-0.1734;-0.0949;21.6667;-1.87;-11.0;-37.12;59.71;-86.34;55.62;0.0;65.192;12.841645;77.66422;677.74;3046.691378646719;0.0;29.032257;0.0;7 / 22;1527;2016-11-30 16:02:50:264
0.0;0.0;2.298;-0.6129;9.7929;0.4086;1.2122;-9.3434;2.1928;-0.3357;-0.0736;0.1876;21.6667;-2.06;-13.12;-35.75;59.71;-86.34;55.62;0.0;65.192;12.841645;77.66422;677.74;3046.691378646719;0.0;29.032257;0.0;7 / 22;1532;2016-11-30 16:02:50:269
0.0;0.0;2.298;-0.6129;9.7929;0.4086;1.2122;-9.3434;2.1928;-0.3357;-0.0736;0.1876;21.6667;-2.06;-13.12;-35.75;59.71;-86.34;55.62;0.0;65.192;12.841645;77.66422;677.74;3046.691378646719;0.0;29.032257;0.0;7 / 22;1537;2016-11-30 16:02:50:274
0.0;0.0;2.298;-0.6129;9.7929;0.4086;1.2122;-9.3434;2.1928;-0.3357;-0.0736;0.1876;21.6667;-2.06;-13.12;-35.75;59.71;-86.34;55.62;0.0;65.192;12.841645;77.66422;677.74;3046.691378646719;0.0;29.032257;0.0;7 / 22;1542;2016-11-30 16:02:50:279
0.0;0.0;2.298;-0.6129;9.7929;0.4086;1.2122;-9.3434;2.1928;-0.3357;-0.0736;0.1876;21.6667;-2.06;-13.12;-35.75;59.71;-86.34;55.62;0.0;65.192;12.841645;77.66422;677.74;3046.691378646719;0.0;29.032257;0.0;7 / 22;1547;2016-11-30 16:02:50:284
-2.911;-1.225;-0.153;-0.5993;9.7793;0.4631;-2.3018;-11.0051;-0.6129;-0.2956;-0.1301;-0.033;21.6667;-2.25;-13.5;-35.37;61.05;-85.7;56.31;0.0;65.192;12.841645;77.66422;677.74;3046.691378646719;0.0;29.032257;0.0;7 / 22;1551;2016-11-30 16:02:50:288
-2.911;-1.225;-0.153;-0.5993;9.7793;0.4631;-2.3018;-11.0051;-0.6129;-0.2956;-0.1301;-0.033;21.6667;-2.25;-13.5;-35.37;61.05;-85.7;56.31;0.0;65.192;12.841645;77.66422;677.74;3046.691378646719;0.0;29.032257;0.0;7 / 22;1557;2016-11-30 16:02:50:294
-3.984;-2.145;-5.056;-0.5993;9.7793;0.4631;-2.3018;-11.0051;-0.6129;-0.2956;-0.1301;-0.033;21.6667;-2.25;-13.5;-35.37;61.05;-85.7;56.31;0.0;65.192;12.841645;77.66422;677.74;3046.691378646719;0.0;29.032257;0.0;7 / 22;1561;2016-11-30 16:02:50:298
-3.984;-2.145;-5.056;-0.5993;9.7793;0.4631;-2.3018;-11.0051;-0.6129;-0.2956;-0.1301;-0.033;21.6667;-2.25;-13.5;-35.37;61.05;-85.7;56.31;0.0;65.192;12.841645;77.66422;677.74;3046.691378646719;0.0;29.032257;0.0;7 / 22;1566;2016-11-30 16:02:50:303
-3.984;-2.145;-5.056;-0.6674;9.7793;0.4222;-3.01;-11.4545;-7.1642;-0.2956;-0.1301;-0.033;21.6667;-3.62;-14.87;-34.94;61.05;-85.7;56.31;0.0;65.192;12.841645;77.66422;677.74;3046.691378646719;0.0;29.032257;0.0;7 / 22;1571;2016-11-30 16:02:50:308
-3.984;-2.145;-5.056;-0.6674;9.7793;0.4222;-3.01;-11.4545;-7.1642;-0.2956;-0.1301;-0.033;21.6667;-3.62;-14.87;-34.94;61.05;-85.7;56.31;0.0;65.192;12.841645;77.66422;677.74;3046.691378646719;0.0;29.032257;0.0;7 / 22;1576;2016-11-30 16:02:50:313
-2.758;-0.612;-8.121;-0.6674;9.7793;0.4222;-3.01;-11.4545;-7.1642;-0.2956;-0.1301;-0.033;21.6667;-3.62;-14.87;-34.94;61.05;-85.7;56.31;0.0;65.192;12.841645;77.66422;677.74;3046.691378646719;0.0;29.032257;0.0;7 / 22;1582;2016-11-30 16:02:50:319
-2.758;-0.612;-8.121;-0.7355;9.7793;0.3269;-2.4789;-10.8416;-8.1448;1.1006;-0.2032;-0.7249;21.6667;-3.94;-15.44;-34.44;66.31;-85.38;57.68;0.0;65.192;12.841645;77.66422;677.74;3046.691378646719;0.0;29.032257;0.0;7 / 22;1588;2016-11-30 16:02:50:325
-2.758;-0.612;-8.121;-0.7355;9.7793;0.3269;-2.4789;-10.8416;-8.1448;1.1006;-0.2032;-0.7249;21.6667;-3.94;-15.44;-34.44;66.31;-85.38;57.68;0.0;65.192;12.841645;77.66422;677.74;3046.691378646719;0.0;29.032257;0.0;7 / 22;1592;2016-11-30 16:02:50:329
-2.758;-0.612;-8.121;-0.7355;9.7793;0.3269;-2.4789;-10.8416;-8.1448;1.1006;-0.2032;-0.7249;21.6667;-3.94;-15.44;-34.44;66.31;-85.38;57.68;0.0;65.192;12.841645;77.66422;677.74;3046.691378646719;0.0;29.032257;0.0;7 / 22;1597;2016-11-30 16:02:50:334
-2.758;-0.612;-8.121;-0.8989;9.7793;-0.0681;-0.3269;-7.4911;-9.7384;2.4895;-0.1222;-0.8969;21.6667;-4.31;-16.62;-34.0;66.31;-85.38;57.68;0.0;65.192;12.841645;77.66422;677.74;3046.691378646719;0.0;29.032257;0.0;7 / 22;1602;2016-11-30 16:02:50:339
-1.532;3.217;-9.96;-0.8989;9.7793;-0.0681;-0.3269;-7.4911;-9.7384;2.4895;-0.1222;-0.8969;21.6667;-4.31;-16.62;-34.0;66.31;-85.38;57.68;0.0;65.192;12.841645;77.66422;677.74;3046.691378646719;0.0;29.032257;0.0;7 / 22;1607;2016-11-30 16:02:50:344
-1.532;3.217;-9.96;-0.8989;9.7793;-0.0681;-0.3269;-7.4911;-9.7384;3.1869;-0.0725;-0.9346;21.6667;-4.31;-16.62;-34.0;66.31;-85.38;57.68;0.0;65.192;12.841645;77.66422;677.74;3046.691378646719;0.0;29.032257;0.0;7 / 22;1612;2016-11-30 16:02:50:349
-1.532;3.217;-9.96;-0.8989;9.7793;-0.0681;-0.3269;-7.4911;-9.7384;3.1869;-0.0725;-0.9346;21.6667;-4.31;-16.62;-34.0;66.31;-85.38;57.68;0.0;65.192;12.841645;77.66422;677.74;3046.691378646719;0.0;29.032257;0.0;7 / 22;1617;2016-11-30 16:02:50:354
-3.984;8.734;-11.799;-1.0624;9.7248;-0.6946;-1.2258;-3.1326;-9.575;3.1869;-0.0725;-0.9346;21.6667;-4.5;-17.69;-32.44;66.31;-85.38;57.68;0.0;65.192;12.841645;77.66422;677.74;3046.691378646719;0.0;29.032257;0.0;7 / 22;1622;2016-11-30 16:02:50:359
-3.984;8.734;-11.799;-1.0624;9.7248;-0.6946;-1.2258;-3.1326;-9.575;3.1869;-0.0725;-0.9346;21.6667;-4.5;-17.69;-32.44;66.31;-85.38;57.68;0.0;65.192;12.841645;77.66422;677.74;3046.691378646719;0.0;29.032257;0.0;7 / 22;1627;2016-11-30 16:02:50:364
-3.984;8.734;-11.799;-1.1577;9.6839;-1.1168;-3.7455;-0.0272;-13.4431;4.657;0.0859;-1.0881;21.6667;-4.19;-18.25;-31.44;133.41;-82.56;123.18;0.0;65.192;12.841645;77.66422;677.74;3046.691378646719;0.0;29.032257;0.0;7 / 22;1632;2016-11-30 16:02:50:369
-3.984;8.734;-11.799;-1.1577;9.6839;-1.1168;-3.7455;-0.0272;-13.4431;4.657;0.0859;-1.0881;21.6667;-4.19;-18.25;-31.44;133.41;-82.56;123.18;0.0;65.192;12.841645;77.66422;677.74;3046.691378646719;0.0;29.032257;0.0;7 / 22;1637;2016-11-30 16:02:50:374
-7.661;13.484;-18.388;-1.1577;9.6839;-1.1168;-3.7455;-0.0272;-13.4431;4.657;0.0859;-1.0881;21.6667;-4.19;-18.25;-31.44;133.41;-82.56;123.18;0.0;65.192;12.841645;77.66422;677.74;3046.691378646719;0.0;29.032257;0.0;7 / 22;1642;2016-11-30 16:02:50:379
-7.661;13.484;-18.388;-1.1577;9.6839;-1.1168;-3.7455;-0.0272;-13.4431;4.657;0.0859;-1.0881;21.6667;-4.19;-18.25;-31.44;133.41;-82.56;123.18;0.0;65.192;12.841645;77.66422;677.74;3046.691378646719;0.0;29.032257;0.0;7 / 22;1647;2016-11-30 16:02:50:384
-7.661;13.484;-18.388;-1.3893;9.5069;-2.0294;-3.8136;5.5161;-11.7678;5.2859;0.1437;-1.258;21.6667;-4.12;-18.69;-31.0;133.41;-82.56;123.18;0.0;65.192;12.841645;77.66422;677.74;3046.691378646719;0.0;29.032257;0.0;7 / 22;1652;2016-11-30 16:02:50:389
6.895;18.694;-1.992;-1.3893;9.5069;-2.0294;-3.8136;5.5161;-11.7678;5.2859;0.1437;-1.258;21.6667;-4.12;-18.69;-31.0;133.41;-82.56;123.18;0.0;65.192;12.841645;77.66422;677.74;3046.691378646719;0.0;29.032257;0.0;7 / 22;1657;2016-11-30 16:02:50:394
6.895;18.694;-1.992;-1.3893;9.5069;-2.0294;-3.8136;5.5161;-11.7678;5.2859;0.1437;-1.258;21.6667;-4.12;-18.69;-31.0;133.41;-82.56;123.18;0.0;65.192;12.841645;77.66422;677.74;3046.691378646719;0.0;29.032257;0.0;7 / 22;1662;2016-11-30 16:02:50:399
6.895;18.694;-1.992;-1.3893;9.5069;-2.0294;-3.8136;5.5161;-11.7678;5.2859;0.1437;-1.258;21.6667;-4.12;-18.69;-31.0;133.41;-82.56;123.18;0.0;65.192;12.841645;77.66422;677.74;3046.691378646719;0.0;29.032257;0.0;7 / 22;1667;2016-11-30 16:02:50:404
8.274;19.46;-4.137;-1.4437;9.3979;-2.438;4.3448;8.5398;-2.152;4.3849;0.1617;-0.6447;21.6667;-4.19;-19.0;-31.31;155.86;-75.5;145.61;0.0;65.192;12.841645;77.66422;677.74;3046.691378646719;0.0;29.032257;0.0;7 / 22;1672;2016-11-30 16:02:50:409
8.274;19.46;-4.137;-1.4437;9.3979;-2.438;4.3448;8.5398;-2.152;4.3849;0.1617;-0.6447;21.6667;-4.19;-19.0;-31.31;155.86;-75.5;145.61;0.0;65.192;12.841645;77.66422;677.74;3046.691378646719;0.0;29.032257;0.0;7 / 22;1676;2016-11-30 16:02:50:413
8.274;19.46;-4.137;-1.4437;9.3979;-2.438;4.3448;8.5398;-2.152;4.1465;0.4077;0.5525;21.6667;-4.19;-19.0;-31.31;155.86;-75.5;145.61;0.0;65.192;12.841645;77.66422;677.74;3046.691378646719;0.0;29.032257;0.0;7 / 22;1682;2016-11-30 16:02:50:419
8.274;19.46;-4.137;-1.4437;9.3979;-2.438;4.3448;8.5398;-2.152;4.1465;0.4077;0.5525;21.6667;-4.19;-19.0;-31.31;155.86;-75.5;145.61;0.0;65.192;12.841645;77.66422;677.74;3046.691378646719;0.0;29.032257;0.0;7 / 22;1687;2016-11-30 16:02:50:424
8.274;19.46;-4.137;-1.3212;9.0983;-3.4323;2.3835;10.3649;-15.8811;4.1465;0.4077;0.5525;21.6667;-2.44;-19.81;-30.06;155.86;-75.5;145.61;0.0;65.192;12.841645;77.66422;677.74;3046.691378646719;0.0;29.032257;0.0;7 / 22;1692;2016-11-30 16:02:50:429
8.274;19.46;-4.137;-1.3212;9.0983;-3.4323;2.3835;10.3649;-15.8811;4.1465;0.4077;0.5525;21.6667;-2.44;-19.81;-30.06;155.86;-75.5;145.61;0.0;65.192;12.841645;77.66422;677.74;3046.691378646719;0.0;29.032257;0.0;7 / 22;1697;2016-11-30 16:02:50:434
-0.611;19.461;-16.854;-1.3212;9.0983;-3.4323;2.3835;10.3649;-15.8811;3.5744;0.3452;0.4453;21.6667;-2.44;-19.81;-30.06;155.86;-75.5;145.61;0.0;65.192;12.841732;77.664215;677.42;3046.691378646719;0.0;27.741936;0.0;7 / 22;1702;2016-11-30 16:02:50:439
-0.611;19.461;-16.854;-1.3212;9.0983;-3.4323;2.3835;10.3649;-15.8811;3.5744;0.3452;0.4453;21.6667;-2.44;-19.81;-30.06;155.86;-75.5;145.61;0.0;56.714;12.841732;77.664215;677.42;3046.691378646719;0.0;27.741936;0.0;7 / 22;1707;2016-11-30 16:02:50:444
-2.603;19.461;-16.241;-1.185;8.7305;-4.3176;0.4222;10.7327;-10.0925;3.5744;0.3452;0.4453;21.6667;-1.31;-20.19;-30.0;163.76;-67.99;158.95;0.0;56.714;12.841732;77.664215;677.42;3046.691378646719;0.0;27.741936;0.0;6 / 22;1712;2016-11-30 16:02:50:449
-2.603;19.461;-16.241;-1.185;8.7305;-4.3176;0.4222;10.7327;-10.0925;3.5744;0.3452;0.4453;21.6667;-1.31;-20.19;-30.0;163.76;-67.99;158.95;0.0;56.714;12.841732;77.664215;677.42;3046.691378646719;0.0;27.741936;0.0;6 / 22;1716;2016-11-30 16:02:50:453
-2.603;19.461;-16.241;-1.185;8.7305;-4.3176;0.4222;10.7327;-10.0925;3.1129;0.2681;0.213;21.6667;-1.31;-20.19;-30.0;163.76;-67.99;158.95;0.0;56.714;12.841732;77.664215;677.42;3046.691378646719;0.0;27.741936;0.0;6 / 22;1721;2016-11-30 16:02:50:458
-2.604;19.46;-15.629;-1.185;8.7305;-4.3176;0.4222;10.7327;-10.0925;3.1129;0.2681;0.213;21.6667;-1.31;-20.19;-30.0;163.76;-67.99;158.95;0.0;56.714;12.841732;77.664215;677.42;3046.691378646719;0.0;27.741936;0.0;6 / 22;1727;2016-11-30 16:02:50:464
-2.604;19.46;-15.629;-1.1441;8.4717;-4.8079;-1.1441;10.9914;-9.1391;2.852;0.2162;0.093;21.6667;-0.87;-20.37;-30.44;163.76;-67.99;158.95;0.0;56.714;12.841732;77.664215;677.42;3046.691378646719;0.0;27.741936;0.0;6 / 22;1732;2016-11-30 16:02:50:469
-2.604;19.46;-15.629;-1.1441;8.4717;-4.8079;-1.1441;10.9914;-9.1391;2.852;0.2162;0.093;21.6667;-0.87;-20.37;-30.44;163.76;-67.99;158.95;0.0;56.714;12.841732;77.664215;677.42;3046.691378646719;0.0;27.741936;0.0;6 / 22;1737;2016-11-30 16:02:50:474
-2.298;19.46;-6.895;-1.1441;8.4717;-4.8079;-1.1441;10.9914;-9.1391;2.5323;0.18;-0.0172;21.6667;-0.87;-20.37;-30.44;163.76;-67.99;158.95;0.0;56.714;12.841732;77.664215;677.42;3046.691378646719;0.0;27.741936;0.0;6 / 22;1742;2016-11-30 16:02:50:479
-2.298;19.46;-6.895;-1.1441;8.4717;-4.8079;-1.1441;10.9914;-9.1391;2.5323;0.18;-0.0172;21.6667;-0.87;-20.37;-30.44;163.76;-67.99;158.95;0.0;56.714;12.841732;77.664215;677.42;3046.691378646719;0.0;27.741936;0.0;6 / 22;1747;2016-11-30 16:02:50:484
-1.837;19.461;-4.596;-1.1305;8.2538;-5.1893;-1.0079;11.2094;-0.3269;2.0917;0.1342;-0.0633;21.6667;-0.5;-20.19;-30.75;168.76;-59.74;166.61;0.0;56.714;12.841732;77.664215;677.42;3046.691378646719;0.0;27.741936;0.0;6 / 22;1752;2016-11-30 16:02:50:489
-1.837;19.461;-4.596;-1.1305;8.2538;-5.1893;-1.0079;11.2094;-0.3269;2.0917;0.1342;-0.0633;21.6667;-0.5;-20.19;-30.75;168.76;-59.74;166.61;0.0;56.714;12.841732;77.664215;677.42;3046.691378646719;0.0;27.741936;0.0;6 / 22;1757;2016-11-30 16:02:50:494
-1.837;19.461;-4.596;-1.1305;8.2538;-5.1893;-1.0079;11.2094;-0.3269;2.0917;0.1342;-0.0633;21.6667;-0.5;-20.19;-30.75;168.76;-59.74;166.61;0.0;56.714;12.841732;77.664215;677.42;3046.691378646719;0.0;27.741936;0.0;6 / 22;1762;2016-11-30 16:02:50:499
-0.919;19.46;-1.992;-1.1305;8.1721;-5.3118;-0.395;11.2911;1.7979;1.6515;0.1554;-0.0766;21.6667;0.56;-19.75;-30.81;168.76;-59.74;166.61;0.0;56.714;12.841732;77.664215;677.42;3046.691378646719;0.0;27.741936;0.0;6 / 22;1767;2016-11-30 16:02:50:504
-0.919;19.46;-1.992;-1.1305;8.1721;-5.3118;-0.395;11.2911;1.7979;1.6515;0.1554;-0.0766;21.6667;0.56;-19.75;-30.81;168.76;-59.74;166.61;0.0;56.714;12.841732;77.664215;677.42;3046.691378646719;0.0;27.741936;0.0;6 / 22;1772;2016-11-30 16:02:50:509
-0.919;19.46;-1.992;-1.1305;8.1721;-5.3118;-0.395;11.2911;1.7979;1.6515;0.1554;-0.0766;21.6667;0.56;-19.75;-30.81;168.76;-59.74;166.61;0.0;56.714;12.841732;77.664215;677.42;3046.691378646719;0.0;27.741936;0.0;6 / 22;1777;2016-11-30 16:02:50:514
-0.611;19.461;1.226;-1.1305;8.1721;-5.3118;-0.395;11.2911;1.7979;1.2389;0.225;-0.0466;21.6667;0.56;-19.75;-30.81;168.76;-59.74;166.61;0.0;56.714;12.841732;77.664215;677.42;3046.691378646719;0.0;27.741936;0.0;6 / 22;1781;2016-11-30 16:02:50:518
-0.611;19.461;1.226;-1.1305;8.1721;-5.3118;-0.395;11.2911;1.7979;1.2389;0.225;-0.0466;21.6667;0.56;-19.75;-30.81;168.76;-59.74;166.61;0.0;56.714;12.841732;77.664215;677.42;3046.691378646719;0.0;27.741936;0.0;6 / 22;1786;2016-11-30 16:02:50:523
-0.611;19.461;1.226;-1.0896;8.0631;-5.4753;0.3269;11.4001;8.3764;0.132;0.3772;0.0965;21.6667;1.44;-17.69;-32.25;167.97;-56.39;167.99;0.0;56.714;12.841732;77.664215;677.42;3046.691378646719;0.0;27.741936;0.0;6 / 22;1791;2016-11-30 16:02:50:528
-1.224;19.461;3.525;-1.0896;8.0631;-5.4753;0.3269;11.4001;8.3764;0.132;0.3772;0.0965;21.6667;1.44;-17.69;-32.25;167.97;-56.39;167.99;0.0;56.714;12.841732;77.664215;677.42;3046.691378646719;0.0;27.741936;0.0;6 / 22;1796;2016-11-30 16:02:50:533
-1.224;19.461;3.525;-1.0896;8.0631;-5.4753;0.3269;11.4001;8.3764;-0.3965;0.4366;0.1162;21.6667;1.44;-17.69;-32.25;167.97;-56.39;167.99;0.0;56.714;12.841732;77.664215;677.42;3046.691378646719;0.0;27.741936;0.0;6 / 22;1802;2016-11-30 16:02:50:539
-1.224;19.461;3.525;-1.0896;8.0631;-5.4753;0.3269;11.4001;8.3764;-0.3965;0.4366;0.1162;21.6667;1.44;-17.69;-32.25;167.97;-56.39;167.99;0.0;56.714;12.841732;77.664215;677.42;3046.691378646719;0.0;27.741936;0.0;6 / 22;1807;2016-11-30 16:02:50:544
-4.29;15.783;5.822;-1.0215;8.1312;-5.3936;-0.8172;11.332;9.071;-0.9037;0.489;0.1448;21.6667;1.63;-16.06;-33.06;167.97;-56.39;167.99;0.0;56.714;12.841732;77.664215;677.42;3046.691378646719;0.0;27.741936;0.0;6 / 22;1812;2016-11-30 16:02:50:549
-4.29;15.783;5.822;-1.0215;8.1312;-5.3936;-0.8172;11.332;9.071;-0.9037;0.489;0.1448;21.6667;1.63;-16.06;-33.06;167.97;-56.39;167.99;0.0;56.714;12.841732;77.664215;677.42;3046.691378646719;0.0;27.741936;0.0;6 / 22;1818;2016-11-30 16:02:50:555
-4.29;15.783;5.822;-1.0215;8.1312;-5.3936;-0.8172;11.332;9.071;-0.9037;0.489;0.1448;21.6667;1.63;-16.06;-33.06;167.97;-56.39;167.99;0.0;56.714;12.841732;77.664215;677.42;3046.691378646719;0.0;27.741936;0.0;6 / 22;1821;2016-11-30 16:02:50:558
-4.29;15.783;5.822;-1.0215;8.1312;-5.3936;-0.8172;11.332;9.071;-1.6602;0.3591;0.0273;2.5;1.63;-16.06;-33.06;167.97;-56.39;167.99;0.0;56.714;12.841732;77.664215;677.42;3046.691378646719;0.0;27.741936;0.0;6 / 22;1827;2016-11-30 16:02:50:564
-4.443;7.661;9.5;-0.9534;8.3764;-5.0258;-3.4868;-0.7219;14.5191;-2.099;0.3177;-0.0382;2.5;1.25;-12.81;-35.5;168.12;-55.98;169.28;0.0;56.714;12.841732;77.664215;677.42;3046.691378646719;0.0;27.741936;0.0;6 / 22;1832;2016-11-30 16:02:50:569
-4.443;7.661;9.5;-0.9534;8.3764;-5.0258;-3.4868;-0.7219;14.5191;-2.099;0.3177;-0.0382;2.5;1.25;-12.81;-35.5;168.12;-55.98;169.28;0.0;56.714;12.841732;77.664215;677.42;3046.691378646719;0.0;27.741936;0.0;6 / 22;1836;2016-11-30 16:02:50:573
-4.443;7.661;9.5;-0.9534;8.3764;-5.0258;-3.4868;-0.7219;14.5191;-2.099;0.3177;-0.0382;2.5;1.25;-12.81;-35.5;168.12;-55.98;169.28;0.0;56.714;12.841732;77.664215;677.42;3046.691378646719;0.0;27.741936;0.0;6 / 22;1841;2016-11-30 16:02:50:578
-4.443;7.661;9.5;-0.9534;8.3764;-5.0258;-3.4868;-0.7219;14.5191;-2.099;0.3177;-0.0382;2.5;1.25;-12.81;-35.5;168.12;-55.98;169.28;0.0;56.714;12.841732;77.664215;677.42;3046.691378646719;0.0;27.741936;0.0;6 / 22;1846;2016-11-30 16:02:50:583
-4.443;7.661;9.5;-0.9262;8.5671;-4.6853;2.9147;-10.7054;10.6646;-2.2921;0.3172;0.0859;2.5;1.44;-11.37;-36.94;168.12;-55.98;169.28;0.0;56.714;12.841732;77.664215;677.42;3046.691378646719;0.0;27.741936;0.0;6 / 22;1852;2016-11-30 16:02:50:589
3.064;-3.217;4.29;-0.9262;8.5671;-4.6853;2.9147;-10.7054;10.6646;-2.2921;0.3172;0.0859;2.5;1.44;-11.37;-36.94;168.12;-55.98;169.28;0.0;56.714;12.841732;77.664215;677.42;3046.691378646719;0.0;27.741936;0.0;6 / 22;1857;2016-11-30 16:02:50:594
3.064;-3.217;4.29;-0.9262;8.5671;-4.6853;2.9147;-10.7054;10.6646;-2.7145;0.4557;0.3305;2.5;1.44;-11.37;-36.94;168.12;-55.98;169.28;0.0;56.714;12.841732;77.664215;677.42;3046.691378646719;0.0;27.741936;0.0;6 / 22;1862;2016-11-30 16:02:50:599
3.064;-3.217;4.29;-0.9262;8.5671;-4.6853;2.9147;-10.7054;10.6646;-2.7145;0.4557;0.3305;2.5;1.44;-11.37;-36.94;168.12;-55.98;169.28;0.0;56.714;12.841732;77.664215;677.42;3046.691378646719;0.0;27.741936;0.0;6 / 22;1867;2016-11-30 16:02:50:604
3.064;-3.217;4.29;-0.8172;8.785;-4.2903;5.8703;-13.8381;1.8387;-2.7145;0.4557;0.3305;2.5;0.56;-9.62;-38.44;168.12;-55.98;169.28;0.0;56.714;12.841732;77.664215;677.42;3046.691378646719;0.0;27.741936;0.0;6 / 22;1872;2016-11-30 16:02:50:609
4.903;-5.976;-11.186;-0.8172;8.785;-4.2903;5.8703;-13.8381;1.8387;-2.7145;0.4557;0.3305;2.5;0.56;-9.62;-38.44;168.12;-55.98;169.28;0.0;56.714;12.841732;77.664215;677.42;3046.691378646719;0.0;27.741936;0.0;6 / 22;1877;2016-11-30 16:02:50:614
4.903;-5.976;-11.186;-0.8172;8.785;-4.2903;5.8703;-13.8381;1.8387;-1.9166;0.5367;0.4767;2.5;0.56;-9.62;-38.44;168.12;-55.98;169.28;0.0;56.714;12.841732;77.664215;677.42;3046.691378646719;0.0;27.741936;0.0;6 / 22;1882;2016-11-30 16:02:50:619
4.903;-5.976;-11.186;-0.8172;8.785;-4.2903;5.8703;-13.8381;1.8387;-1.9166;0.5367;0.4767;2.5;0.56;-9.62;-38.44;168.12;-55.98;169.28;0.0;56.714;12.841732;77.664215;677.42;3046.691378646719;0.0;27.741936;0.0;6 / 22;1886;2016-11-30 16:02:50:623
4.903;-5.976;-11.186;-0.7355;8.9076;-4.0452;0.1362;-12.1219;-6.3742;-1.9166;0.5367;0.4767;2.5;-0.12;-9.31;-38.87;169.22;-63.57;169.22;0.0;56.714;12.841732;77.664215;677.42;3046.691378646719;0.0;27.741936;0.0;6 / 22;1892;2016-11-30 16:02:50:629
-5.976;-1.379;-4.29;-0.7355;8.9076;-4.0452;0.1362;-12.1219;-6.3742;-1.9166;0.5367;0.4767;2.5;-0.12;-9.31;-38.87;169.22;-63.57;169.22;0.0;56.714;12.841732;77.664215;677.42;3046.691378646719;0.0;27.741936;0.0;6 / 22;1897;2016-11-30 16:02:50:634
-5.976;-1.379;-4.29;-0.7355;8.9076;-4.0452;0.1362;-12.1219;-6.3742;-1.9166;0.5367;0.4767;2.5;-0.12;-9.31;-38.87;169.22;-63.57;169.22;0.0;56.714;12.841732;77.664215;677.42;3046.691378646719;0.0;27.741936;0.0;6 / 22;1902;2016-11-30 16:02:50:639
-7.968;0.0;8.427;-0.7491;8.9621;-3.9362;-5.2301;-10.3377;-0.3541;-1.2847;0.2127;-0.1437;2.5;-0.87;-9.75;-39.19;169.22;-63.57;169.22;0.0;56.714;12.841732;77.664215;677.42;3046.691378646719;0.0;27.741936;0.0;6 / 22;1907;2016-11-30 16:02:50:644
-7.968;0.0;8.427;-0.7491;8.9621;-3.9362;-5.2301;-10.3377;-0.3541;-1.2847;0.2127;-0.1437;2.5;-0.87;-9.75;-39.19;169.22;-63.57;169.22;0.0;56.714;12.841732;77.664215;677.42;3046.691378646719;0.0;27.741936;0.0;6 / 22;1912;2016-11-30 16:02:50:649
-7.968;0.0;8.427;-0.7491;8.9621;-3.9362;-5.2301;-10.3377;-0.3541;-1.2847;0.2127;-0.1437;2.5;-0.87;-9.75;-39.19;169.22;-63.57;169.22;0.0;56.714;12.841732;77.664215;677.42;3046.691378646719;0.0;27.741936;0.0;6 / 22;1917;2016-11-30 16:02:50:654
-1.532;-1.838;14.404;-0.8581;9.1119;-3.5276;-5.7341;-10.0244;17.6245;-2.9611;-0.3019;-0.6989;2.5;-1.37;-11.12;-38.87;169.22;-63.57;169.22;0.0;56.714;12.841732;77.664215;677.42;3046.691378646719;0.0;27.741936;0.0;6 / 22;1922;2016-11-30 16:02:50:659
-1.532;-1.838;14.404;-0.8581;9.1119;-3.5276;-5.7341;-10.0244;17.6245;-2.9611;-0.3019;-0.6989;2.5;-1.37;-11.12;-38.87;169.22;-63.57;169.22;0.0;56.714;12.841732;77.664215;677.42;3046.691378646719;0.0;27.741936;0.0;6 / 22;1927;2016-11-30 16:02:50:664
-1.532;-1.838;14.404;-0.8581;9.1119;-3.5276;-5.7341;-10.0244;17.6245;-3.7655;-0.5012;-0.7808;2.5;-1.37;-11.12;-38.87;169.22;-63.57;169.22;0.0;56.714;12.841732;77.664215;677.42;3046.691378646719;0.0;27.741936;0.0;6 / 22;1932;2016-11-30 16:02:50:669
-1.532;-1.838;14.404;-0.8581;9.1119;-3.5276;-5.7341;-10.0244;17.6245;-3.7655;-0.5012;-0.7808;2.5;-1.37;-11.12;-38.87;169.22;-63.57;169.22;0.0;56.714;12.841732;77.664215;677.42;3046.691378646719;0.0;27.741936;0.0;6 / 22;1937;2016-11-30 16:02:50:674
-1.532;-1.838;14.404;-0.8581;9.1119;-3.5276;-5.7341;-10.0244;17.6245;-3.7655;-0.5012;-0.7808;2.5;-1.37;-11.12;-38.87;169.22;-63.57;169.22;0.0;56.714;12.841732;77.664215;677.42;3046.691378646719;0.0;27.741936;0.0;6 / 22;1942;2016-11-30 16:02:50:679
-0.306;-3.064;-18.541;-1.0079;9.3298;-2.8738;3.1462;-12.8438;-0.4903;-3.6944;-0.5345;-0.6943;2.5;-1.87;-14.06;-37.62;170.0;-68.28;166.33;0.0;56.714;12.841732;77.664215;677.42;3046.691378646719;0.0;27.741936;0.0;6 / 22;1947;2016-11-30 16:02:50:684
-0.306;-3.064;-18.541;-1.0079;9.3298;-2.8738;3.1462;-12.8438;-0.4903;-3.6944;-0.5345;-0.6943;2.5;-1.87;-14.06;-37.62;170.0;-68.28;166.33;0.0;56.714;12.841732;77.664215;677.42;3046.691378646719;0.0;27.741936;0.0;6 / 22;1952;2016-11-30 16:02:50:689
-0.306;-3.064;-18.541;-1.0079;9.3298;-2.8738;3.1462;-12.8438;-0.4903;-3.6944;-0.5345;-0.6943;2.5;-1.87;-14.06;-37.62;170.0;-68.28;166.33;0.0;56.714;12.841732;77.664215;677.42;3046.691378646719;0.0;27.741936;0.0;6 / 22;1957;2016-11-30 16:02:50:694
-2.911;0.0;-5.669;-1.1713;9.4932;-2.2065;-2.5061;-10.5556;-12.0402;-3.4067;-0.6992;-0.7849;2.5;-2.37;-17.69;-34.31;170.0;-68.28;166.33;0.0;56.714;12.841732;77.664215;677.42;3046.691378646719;0.0;27.741936;0.0;6 / 22;1962;2016-11-30 16:02:50:699
-2.911;0.0;-5.669;-1.1713;9.4932;-2.2065;-2.5061;-10.5556;-12.0402;-3.4067;-0.6992;-0.7849;2.5;-2.37;-17.69;-34.31;170.0;-68.28;166.33;0.0;56.714;12.841732;77.664215;677.42;3046.691378646719;0.0;27.741936;0.0;6 / 22;1967;2016-11-30 16:02:50:704
-2.911;0.0;-5.669;-1.1713;9.4932;-2.2065;-2.5061;-10.5556;-12.0402;-3.4009;-1.1898;-1.354;2.5;-2.37;-17.69;-34.31;170.0;-68.28;166.33;0.0;56.714;12.841732;77.664215;677.42;3046.691378646719;0.0;27.741936;0.0;6 / 22;1972;2016-11-30 16:02:50:709
-2.911;0.0;-5.669;-1.1713;9.4932;-2.2065;-2.5061;-10.5556;-12.0402;-3.4009;-1.1898;-1.354;2.5;-2.37;-17.69;-34.31;170.0;-68.28;166.33;0.0;56.714;12.841732;77.664215;677.42;3046.691378646719;0.0;27.741936;0.0;6 / 22;1977;2016-11-30 16:02:50:714
3.984;-3.371;1.685;-1.5527;9.6022;-1.2667;4.0043;-12.2036;2.7921;-3.6087;-1.3581;-1.3256;2.5;-2.62;-20.31;-32.56;170.0;-68.28;166.33;0.0;56.714;12.841732;77.664215;677.42;3046.691378646719;0.0;27.741936;0.0;6 / 22;1982;2016-11-30 16:02:50:719
3.984;-3.371;1.685;-1.5527;9.6022;-1.2667;4.0043;-12.2036;2.7921;-3.6087;-1.3581;-1.3256;2.5;-2.62;-20.31;-32.56;170.0;-68.28;166.33;0.0;56.714;12.841732;77.664215;677.42;3046.691378646719;0.0;27.741936;0.0;6 / 22;1987;2016-11-30 16:02:50:724
3.984;-3.371;1.685;-1.5527;9.6022;-1.2667;4.0043;-12.2036;2.7921;-3.6087;-1.3581;-1.3256;2.5;-2.62;-20.31;-32.56;170.0;-68.28;166.33;0.0;56.714;12.841732;77.664215;677.42;3046.691378646719;0.0;27.741936;0.0;6 / 22;1992;2016-11-30 16:02:50:729
5.209;-6.129;0.306;-1.6889;9.6294;-0.8717;6.2789;-14.3692;2.0975;-4.1724;-1.7009;-1.3758;2.5;-2.62;-20.31;-32.56;138.52;-78.21;129.21;0.0;56.714;12.841732;77.664215;677.42;3046.691378646719;0.0;27.741936;0.0;6 / 22;1997;2016-11-30 16:02:50:734
5.209;-6.129;0.306;-1.6889;9.6294;-0.8717;6.2789;-14.3692;2.0975;-4.1724;-1.7009;-1.3758;2.5;-2.62;-20.31;-32.56;138.52;-78.21;129.21;0.0;56.714;12.841732;77.664215;677.42;3046.691378646719;0.0;27.741936;0.0;6 / 22;2002;2016-11-30 16:02:50:739
5.209;-6.129;0.306;-1.6889;9.6294;-0.8717;6.2789;-14.3692;2.0975;-4.1724;-1.7009;-1.3758;2.5;-2.62;-20.31;-32.56;138.52;-78.21;129.21;0.0;56.714;12.841732;77.664215;677.42;3046.691378646719;0.0;27.741936;0.0;6 / 22;2007;2016-11-30 16:02:50:744
4.137;-10.726;-1.532;-2.1792;9.575;0.1498;6.3061;-20.3076;-1.6753;-5.449;-4.423;-3.6333;2.5;-2.37;-22.37;-29.94;138.52;-78.21;129.21;0.0;56.714;12.841732;77.664215;677.42;3046.691378646719;0.0;27.741936;0.0;6 / 22;2012;2016-11-30 16:02:50:749
4.137;-10.726;-1.532;-2.1792;9.575;0.1498;6.3061;-20.3076;-1.6753;-5.449;-4.423;-3.6333;2.5;-2.37;-22.37;-29.94;138.52;-78.21;129.21;0.0;56.714;12.841732;77.664215;677.42;3046.691378646719;0.0;27.741936;0.0;6 / 22;2017;2016-11-30 16:02:50:754
4.137;-10.726;-1.532;-2.1792;9.575;0.1498;6.3061;-20.3076;-1.6753;-5.449;-4.423;-3.6333;2.5;-2.37;-22.37;-29.94;138.52;-78.21;129.21;0.0;56.714;12.841732;77.664215;677.42;3046.691378646719;0.0;27.741936;0.0;6 / 22;2022;2016-11-30 16:02:50:759
2.451;-9.347;-2.145;-2.1792;9.575;0.1498;6.3061;-20.3076;-1.6753;-5.449;-4.423;-3.6333;2.5;-2.37;-22.37;-29.94;138.52;-78.21;129.21;0.0;56.714;12.841732;77.664215;677.42;3046.691378646719;0.0;27.741936;0.0;6 / 22;2026;2016-11-30 16:02:50:763
2.451;-9.347;-2.145;-6.1972;7.5728;0.8308;8.1857;-15.8402;-2.8194;-2.4475;-2.0159;-27.027;2.5;-1.94;-22.56;-28.75;99.99;-77.15;86.07;0.0;56.714;12.841732;77.664215;677.42;3046.691378646719;0.0;27.741936;0.0;6 / 22;2031;2016-11-30 16:02:50:768
2.451;-9.347;-2.145;-6.1972;7.5728;0.8308;8.1857;-15.8402;-2.8194;-2.4475;-2.0159;-27.027;2.5;-1.94;-22.56;-28.75;99.99;-77.15;86.07;0.0;56.714;12.841732;77.664215;677.42;3046.691378646719;0.0;27.741936;0.0;6 / 22;2036;2016-11-30 16:02:50:773
0.919;-3.83;-0.919;-6.1972;7.5728;0.8308;8.1857;-15.8402;-2.8194;-2.4475;-2.0159;-27.027;2.5;-1.94;-22.56;-28.75;99.99;-77.15;86.07;0.0;56.714;12.841732;77.664215;677.42;3046.691378646719;0.0;27.741936;0.0;6 / 22;2041;2016-11-30 16:02:50:778
0.919;-3.83;-0.919;-8.9621;3.8136;1.2394;9.8746;-6.8782;-2.0022;-4.6589;0.67;-24.1057;2.5;-1.19;-24.25;-27.31;99.99;-77.15;86.07;0.0;56.714;12.841732;77.664215;677.42;3046.691378646719;0.0;27.741936;0.0;6 / 22;2046;2016-11-30 16:02:50:783
0.919;-3.83;-0.919;-8.9621;3.8136;1.2394;9.8746;-6.8782;-2.0022;-4.6589;0.67;-24.1057;2.5;-1.19;-24.25;-27.31;99.99;-77.15;86.07;0.0;56.779;12.841732;77.664215;677.42;3046.691378646719;0.0;27.741936;0.0;6 / 22;2052;2016-11-30 16:02:50:789
0.919;-3.83;-0.919;-8.9621;3.8136;1.2394;9.8746;-6.8782;-2.0022;-4.6589;0.67;-24.1057;2.5;-1.19;-24.25;-27.31;99.99;-77.15;86.07;0.0;56.779;12.841732;77.664215;677.42;3046.691378646719;0.0;27.741936;0.0;6 / 22;2057;2016-11-30 16:02:50:794
0.459;-1.072;0.0;-8.9621;3.8136;1.2394;9.8746;-6.8782;-2.0022;-5.4869;1.1418;-22.1717;2.5;-1.19;-24.25;-27.31;99.99;-77.15;86.07;0.0;56.779;12.841732;77.664215;677.42;3046.691378646719;0.0;27.741936;0.0;6 / 22;2062;2016-11-30 16:02:50:799
0.459;-1.072;0.0;-8.9621;3.8136;1.2394;9.8746;-6.8782;-2.0022;-5.4869;1.1418;-22.1717;2.5;-1.19;-24.25;-27.31;99.99;-77.15;86.07;0.0;56.779;12.841732;77.664215;677.42;3046.691378646719;0.0;27.741936;0.0;6 / 22;2067;2016-11-30 16:02:50:804
0.459;-1.072;0.0;-9.7384;-0.1226;1.2122;9.7384;-0.6401;-0.9125;-5.8586;1.402;-20.1929;2.5;-1.44;-24.62;-27.44;129.28;-22.86;82.13;0.0;56.779;12.841732;77.664215;677.42;3046.691378646719;0.0;27.741936;0.0;6 / 22;2072;2016-11-30 16:02:50:809
0.459;-1.072;0.0;-9.7384;-0.1226;1.2122;9.7384;-0.6401;-0.9125;-5.8586;1.402;-20.1929;2.5;-1.44;-24.62;-27.44;129.28;-22.86;82.13;0.0;56.779;12.841732;77.664215;677.42;3046.691378646719;0.0;27.741936;0.0;6 / 22;2076;2016-11-30 16:02:50:813
0.459;-1.072;0.0;-9.7384;-0.1226;1.2122;9.7384;-0.6401;-0.9125;-5.8586;1.402;-20.1929;2.5;-1.44;-24.62;-27.44;129.28;-22.86;82.13;0.0;56.779;12.841732;77.664215;677.42;3046.691378646719;0.0;27.741936;0.0;6 / 22;2081;2016-11-30 16:02:50:818
-1.225;0.0;0.919;-9.5886;-1.8251;1.0351;8.8258;1.5255;-0.2724;-5.2224;1.2512;-16.9466;2.5;-1.37;-24.81;-26.94;129.28;-22.86;82.13;0.0;56.779;12.841732;77.664215;677.42;3046.691378646719;0.0;27.741936;0.0;6 / 22;2086;2016-11-30 16:02:50:823
-1.225;0.0;0.919;-9.5886;-1.8251;1.0351;8.8258;1.5255;-0.2724;-5.2224;1.2512;-16.9466;2.5;-1.37;-24.81;-26.94;129.28;-22.86;82.13;0.0;56.779;12.841732;77.664215;677.42;3046.691378646719;0.0;27.741936;0.0;6 / 22;2091;2016-11-30 16:02:50:828
-1.225;0.0;0.919;-9.5886;-1.8251;1.0351;8.8258;1.5255;-0.2724;-5.2224;1.2512;-16.9466;2.5;-1.37;-24.81;-26.94;129.28;-22.86;82.13;0.0;56.779;12.841732;77.664215;677.42;3046.691378646719;0.0;27.741936;0.0;6 / 22;2096;2016-11-30 16:02:50:833
-1.531;0.307;-0.458;-8.7169;-4.481;0.4358;7.3412;4.7807;0.0136;-4.6647;2.1574;-13.685;2.5;-2.0;-24.94;-28.19;129.28;-22.86;82.13;0.0;56.779;12.841732;77.664215;677.42;3046.691378646719;0.0;27.741936;0.0;6 / 22;2101;2016-11-30 16:02:50:838
-1.531;0.307;-0.458;-8.7169;-4.481;0.4358;7.3412;4.7807;0.0136;-4.6647;2.1574;-13.685;2.5;-2.0;-24.94;-28.19;129.28;-22.86;82.13;0.0;56.779;12.841732;77.664215;677.42;3046.691378646719;0.0;27.741936;0.0;6 / 22;2107;2016-11-30 16:02:50:844
-1.531;0.307;-0.458;-8.7169;-4.481;0.4358;7.3412;4.7807;0.0136;-4.6647;2.1574;-13.685;2.5;-2.0;-24.94;-28.19;129.28;-22.86;82.13;0.0;56.779;12.841732;77.664215;677.42;3046.691378646719;0.0;27.741936;0.0;6 / 22;2112;2016-11-30 16:02:50:849
-1.531;0.307;-0.458;-8.7169;-4.481;0.4358;7.3412;4.7807;0.0136;-4.6647;2.1574;-13.685;2.5;-2.0;-24.94;-28.19;129.28;-22.86;82.13;0.0;56.779;12.841732;77.664215;677.42;3046.691378646719;0.0;27.741936;0.0;6 / 22;2117;2016-11-30 16:02:50:854
-0.611;0.613;-1.378;-7.7226;-6.0473;-0.177;6.4968;6.4968;-1.1986;-1.258;2.3333;-9.5374;2.5;-1.81;-24.37;-28.69;125.98;27.18;87.14;0.0;56.779;12.841732;77.664215;677.42;3046.691378646719;0.0;27.741936;0.0;6 / 22;2122;2016-11-30 16:02:50:859
-0.611;0.613;-1.378;-7.7226;-6.0473;-0.177;6.4968;6.4968;-1.1986;-1.258;2.3333;-9.5374;2.5;-1.81;-24.37;-28.69;125.98;27.18;87.14;0.0;56.779;12.841732;77.664215;677.42;3046.691378646719;0.0;27.741936;0.0;6 / 22;2127;2016-11-30 16:02:50:864
-0.611;0.613;-1.378;-7.1914;-6.6602;-0.3814;6.5921;7.2595;-0.9943;-1.1669;1.8678;-8.7763;3.3333;-2.25;-24.19;-29.62;125.98;27.18;87.14;0.0;56.779;12.841732;77.664215;677.42;3046.691378646719;0.0;27.741936;0.0;6 / 22;2133;2016-11-30 16:02:50:870
-0.611;0.613;-1.378;-7.1914;-6.6602;-0.3814;6.5921;7.2595;-0.9943;-1.1669;1.8678;-8.7763;3.3333;-2.25;-24.19;-29.62;125.98;27.18;87.14;0.0;56.779;12.841732;77.664215;677.42;3046.691378646719;0.0;27.741936;0.0;6 / 22;2137;2016-11-30 16:02:50:874
0.153;0.612;-0.766;-7.1914;-6.6602;-0.3814;6.5921;7.2595;-0.9943;-1.1669;1.8678;-8.7763;3.3333;-2.25;-24.19;-29.62;125.98;27.18;87.14;0.0;56.779;12.841732;77.664215;677.42;3046.691378646719;0.0;27.741936;0.0;6 / 22;2142;2016-11-30 16:02:50:879
0.153;0.612;-0.766;-7.1914;-6.6602;-0.3814;6.5921;7.2595;-0.9943;-1.1669;1.8678;-8.7763;3.3333;-2.25;-24.19;-29.62;125.98;27.18;87.14;0.0;56.779;12.841732;77.664215;677.42;3046.691378646719;0.0;27.741936;0.0;6 / 22;2147;2016-11-30 16:02:50:884
0.919;0.766;0.153;-5.8158;-7.8452;-0.8444;6.4151;8.6079;0.8444;-4.7214;-1.6586;-9.6454;3.3333;-2.62;-23.81;-30.37;125.98;27.18;87.14;0.0;56.779;12.841732;77.664215;677.42;3046.691378646719;0.0;27.741936;0.0;6 / 22;2152;2016-11-30 16:02:50:889
0.919;0.766;0.153;-5.8158;-7.8452;-0.8444;6.4151;8.6079;0.8444;-4.7214;-1.6586;-9.6454;3.3333;-2.62;-23.81;-30.37;125.98;27.18;87.14;0.0;56.779;12.841732;77.664215;677.42;3046.691378646719;0.0;27.741936;0.0;6 / 22;2156;2016-11-30 16:02:50:893
0.919;0.766;0.153;-5.8158;-7.8452;-0.8444;6.4151;8.6079;0.8444;-4.7214;-1.6586;-9.6454;3.3333;-2.62;-23.81;-30.37;125.98;27.18;87.14;0.0;56.779;12.841732;77.664215;677.42;3046.691378646719;0.0;27.741936;0.0;6 / 22;2161;2016-11-30 16:02:50:898
0.919;0.766;0.153;-5.8158;-7.8452;-0.8444;6.4151;8.6079;0.8444;-4.7214;-1.6586;-9.6454;3.3333;-2.62;-23.81;-30.37;125.98;27.18;87.14;0.0;56.779;12.841732;77.664215;677.42;3046.691378646719;0.0;27.741936;0.0;6 / 22;2167;2016-11-30 16:02:50:904
0.919;0.766;0.153;-5.8158;-7.8452;-0.8444;6.4151;8.6079;0.8444;-4.7214;-1.6586;-9.6454;3.3333;-2.62;-23.81;-30.37;125.98;27.18;87.14;0.0;56.779;12.841732;77.664215;677.42;3046.691378646719;0.0;27.741936;0.0;6 / 22;2172;2016-11-30 16:02:50:909
1.532;1.532;0.919;-4.2631;-8.6896;-1.5255;5.3255;9.9155;2.1247;-5.6819;-3.3008;-9.0182;3.3333;-1.69;-22.19;-30.94;104.82;53.16;98.26;0.0;56.779;12.841732;77.664215;677.42;3046.691378646719;0.0;27.741936;0.0;6 / 22;2178;2016-11-30 16:02:50:915
1.532;1.532;0.919;-4.2631;-8.6896;-1.5255;5.3255;9.9155;2.1247;-5.6819;-3.3008;-9.0182;3.3333;-1.69;-22.19;-30.94;104.82;53.16;98.26;0.0;56.779;12.841732;77.664215;677.42;3046.691378646719;0.0;27.741936;0.0;6 / 22;2182;2016-11-30 16:02:50:919
1.532;1.532;0.919;-4.2631;-8.6896;-1.5255;5.3255;9.9155;2.1247;-5.6819;-3.3008;-9.0182;3.3333;-1.69;-22.19;-30.94;104.82;53.16;98.26;0.0;56.779;12.841732;77.664215;677.42;3046.691378646719;0.0;27.741936;0.0;6 / 22;2186;2016-11-30 16:02:50:923
1.072;2.758;1.532;-2.1384;-9.3979;-1.7434;3.514;11.8495;2.9692;1.1361;-1.0995;-8.9317;3.3333;-2.0;-20.44;-32.94;104.82;53.16;98.26;0.0;56.779;12.841732;77.664215;677.42;3046.691378646719;0.0;27.741936;0.0;6 / 22;2192;2016-11-30 16:02:50:929
1.072;2.758;1.532;-2.1384;-9.3979;-1.7434;3.514;11.8495;2.9692;1.1361;-1.0995;-8.9317;3.3333;-2.0;-20.44;-32.94;104.82;53.16;98.26;0.0;56.779;12.841732;77.664215;677.42;3046.691378646719;0.0;27.741936;0.0;6 / 22;2197;2016-11-30 16:02:50:934
1.072;2.758;1.532;-2.1384;-9.3979;-1.7434;3.514;11.8495;2.9692;1.1361;-1.0995;-8.9317;3.3333;-2.0;-20.44;-32.94;104.82;53.16;98.26;0.0;56.779;12.841732;77.664215;677.42;3046.691378646719;0.0;27.741936;0.0;6 / 22;2202;2016-11-30 16:02:50:939
1.072;2.758;1.532;-2.1384;-9.3979;-1.7434;3.514;11.8495;2.9692;1.1361;-1.0995;-8.9317;3.3333;-2.0;-20.44;-32.94;104.82;53.16;98.26;0.0;56.779;12.841732;77.664215;677.42;3046.691378646719;0.0;27.741936;0.0;6 / 22;2207;2016-11-30 16:02:50:944
0.766;3.524;2.145;-0.7082;-9.6703;-1.4165;1.471;13.4976;3.8681;1.7464;-0.9798;-8.3808;3.3333;-1.81;-18.87;-33.25;56.42;73.64;129.19;0.0;56.779;12.841732;77.664215;677.42;3046.691378646719;0.0;27.741936;0.0;6 / 22;2212;2016-11-30 16:02:50:949
1.225;4.75;4.903;-0.7082;-9.6703;-1.4165;1.471;13.4976;3.8681;1.7464;-0.9798;-8.3808;3.3333;-1.81;-18.87;-33.25;56.42;73.64;129.19;0.0;56.779;12.841732;77.664215;677.42;3046.691378646719;0.0;27.741936;0.0;6 / 22;2224;2016-11-30 16:02:50:961
1.225;4.75;4.903;-0.7082;-9.6703;-1.4165;1.471;13.4976;3.8681;1.7464;-0.9798;-8.3808;3.3333;-1.81;-18.87;-33.25;56.42;73.64;129.19;0.0;56.779;12.841732;77.664215;677.42;3046.691378646719;0.0;27.741936;0.0;6 / 22;2225;2016-11-30 16:02:50:962
1.225;4.75;4.903;-0.7082;-9.6703;-1.4165;1.471;13.4976;3.8681;1.7464;-0.9798;-8.3808;3.3333;-1.81;-18.87;-33.25;56.42;73.64;129.19;0.0;56.779;12.841732;77.664215;677.42;3046.691378646719;0.0;27.741936;0.0;6 / 22;2227;2016-11-30 16:02:50:964
1.225;4.75;4.903;-0.7082;-9.6703;-1.4165;1.471;13.4976;3.8681;1.7464;-0.9798;-8.3808;3.3333;-1.81;-18.87;-33.25;56.42;73.64;129.19;0.0;56.779;12.841732;77.664215;677.42;3046.691378646719;0.0;27.741936;0.0;6 / 22;2232;2016-11-30 16:02:50:969
1.226;4.291;6.436;0.8581;-9.7384;-0.6265;0.5176;14.3284;5.9929;5.7569;0.7914;-8.9102;3.3333;-2.06;-18.25;-33.87;56.42;73.64;129.19;0.0;56.779;12.841732;77.664215;677.42;3046.691378646719;0.0;27.741936;0.0;6 / 22;2236;2016-11-30 16:02:50:973
1.226;4.291;6.436;0.8581;-9.7384;-0.6265;0.5176;14.3284;5.9929;5.7569;0.7914;-8.9102;3.3333;-2.06;-18.25;-33.87;56.42;73.64;129.19;0.0;56.779;12.841732;77.664215;677.42;3046.691378646719;0.0;27.741936;0.0;6 / 22;2241;2016-11-30 16:02:50:978
1.226;4.291;6.436;0.8581;-9.7384;-0.6265;0.5176;14.3284;5.9929;5.7569;0.7914;-8.9102;3.3333;-2.06;-18.25;-33.87;56.42;73.64;129.19;0.0;56.779;12.841732;77.664215;677.42;3046.691378646719;0.0;27.741936;0.0;6 / 22;2246;2016-11-30 16:02:50:983
-2.145;3.677;5.209;3.3505;-9.0438;1.7706;-4.4129;12.7212;4.5083;11.8955;7.6835;-15.9703;3.3333;-1.69;-15.81;-35.12;300.26;83.77;-126.14;0.0;56.779;12.841732;77.664215;677.42;3046.691378646719;0.0;27.741936;0.0;6 / 22;2251;2016-11-30 16:02:50:988
-2.145;3.677;5.209;3.3505;-9.0438;1.7706;-4.4129;12.7212;4.5083;11.8955;7.6835;-15.9703;3.3333;-1.69;-15.81;-35.12;300.26;83.77;-126.14;0.0;56.779;12.841732;77.664215;677.42;3046.691378646719;0.0;27.741936;0.0;6 / 22;2257;2016-11-30 16:02:50:994
-2.145;3.677;5.209;5.3391;-7.9541;2.0566;-8.4036;11.7814;1.6208;-1.303;9.875;-27.9261;3.3333;-1.44;-14.56;-36.12;300.26;83.77;-126.14;0.0;56.779;12.841732;77.664215;677.42;3046.691378646719;0.0;27.741936;0.0;6 / 22;2263;2016-11-30 16:02:51:000
-2.145;3.677;5.209;5.3391;-7.9541;2.0566;-8.4036;11.7814;1.6208;-1.303;9.875;-27.9261;3.3333;-1.44;-14.56;-36.12;300.26;83.77;-126.14;0.0;56.779;12.841732;77.664215;677.42;3046.691378646719;0.0;27.741936;0.0;6 / 22;2266;2016-11-30 16:02:51:003
-5.363;7.048;-11.032;5.3391;-7.9541;2.0566;-8.4036;11.7814;1.6208;-1.303;9.875;-27.9261;3.3333;-1.44;-14.56;-36.12;300.26;83.77;-126.14;0.0;56.779;12.841732;77.664215;677.42;3046.691378646719;0.0;27.741936;0.0;6 / 22;2272;2016-11-30 16:02:51:009
-5.363;7.048;-11.032;5.3391;-7.9541;2.0566;-8.4036;11.7814;1.6208;-1.303;9.875;-27.9261;3.3333;-1.44;-14.56;-36.12;300.26;83.77;-126.14;0.0;56.779;12.841732;77.664215;677.42;3046.691378646719;0.0;27.741936;0.0;6 / 22;2277;2016-11-30 16:02:51:014
-5.363;7.048;-11.032;8.5534;-4.481;1.648;-12.5305;15.5133;-16.5076;-3.7353;-0.3193;-25.6266;3.3333;-1.87;-13.5;-36.06;300.26;83.77;-126.14;0.0;56.779;12.841732;77.664215;677.42;3046.691378646719;0.0;27.741936;0.0;6 / 22;2282;2016-11-30 16:02:51:019
-2.604;14.557;-16.549;8.5534;-4.481;1.648;-12.5305;15.5133;-16.5076;-3.7353;-0.3193;-25.6266;3.3333;-1.87;-13.5;-36.06;300.26;83.77;-126.14;0.0;56.779;12.841732;77.664215;677.42;3046.691378646719;0.0;27.741936;0.0;6 / 22;2286;2016-11-30 16:02:51:023
-2.604;14.557;-16.549;8.5534;-4.481;1.648;-12.5305;15.5133;-16.5076;-1.0292;-2.1271;-20.7339;3.3333;-1.87;-13.5;-36.06;300.26;83.77;-126.14;0.0;56.779;12.841732;77.664215;677.42;3046.691378646719;0.0;27.741936;0.0;6 / 22;2291;2016-11-30 16:02:51:028
-2.604;14.557;-16.549;9.6975;-0.7763;1.2258;-5.1075;20.2395;-1.8251;-1.0292;-2.1271;-20.7339;3.3333;-1.87;-12.81;-36.25;245.99;27.22;-79.09;0.0;56.779;12.841732;77.664215;677.42;3046.691378646719;0.0;27.741936;0.0;6 / 22;2298;2016-11-30 16:02:51:035
-2.604;14.557;-16.549;9.6975;-0.7763;1.2258;-5.1075;20.2395;-1.8251;-1.0292;-2.1271;-20.7339;3.3333;-1.87;-12.81;-36.25;245.99;27.22;-79.09;0.0;56.779;12.841732;77.664215;677.42;3046.691378646719;0.0;27.741936;0.0;6 / 22;2302;2016-11-30 16:02:51:039
12.719;19.461;10.727;9.6975;-0.7763;1.2258;-5.1075;20.2395;-1.8251;-1.0292;-2.1271;-20.7339;3.3333;-1.87;-12.81;-36.25;245.99;27.22;-79.09;0.0;56.779;12.841732;77.664215;677.42;3046.691378646719;0.0;27.741936;0.0;6 / 22;2307;2016-11-30 16:02:51:044
12.719;19.461;10.727;9.6975;-0.7763;1.2258;-5.1075;20.2395;-1.8251;-0.4622;-0.7857;-15.2441;3.3333;-1.87;-12.81;-36.25;245.99;27.22;-79.09;0.0;56.779;12.841732;77.664215;677.42;3046.691378646719;0.0;27.741936;0.0;6 / 22;2312;2016-11-30 16:02:51:049
12.719;19.461;10.727;9.6975;-0.7763;1.2258;-5.1075;20.2395;-1.8251;-0.4622;-0.7857;-15.2441;3.3333;-1.87;-12.81;-36.25;245.99;27.22;-79.09;0.0;56.779;12.841732;77.664215;677.42;3046.691378646719;0.0;27.741936;0.0;6 / 22;2317;2016-11-30 16:02:51:054
-19.459;19.461;-3.063;9.4932;2.2609;0.967;-27.431;17.2022;-8.6215;-0.4622;-0.7857;-15.2441;3.3333;-2.19;-12.44;-36.62;245.99;27.22;-79.09;0.0;56.779;12.841732;77.664215;677.42;3046.691378646719;0.0;27.741936;0.0;6 / 22;2322;2016-11-30 16:02:51:059
-19.459;19.461;-3.063;9.4932;2.2609;0.967;-27.431;17.2022;-8.6215;-0.4622;-0.7857;-15.2441;3.3333;-2.19;-12.44;-36.62;245.99;27.22;-79.09;0.0;56.779;12.841732;77.664215;677.42;3046.691378646719;0.0;27.741936;0.0;6 / 22;2327;2016-11-30 16:02:51:064
-19.459;19.461;-3.063;9.4932;2.2609;0.967;-27.431;17.2022;-8.6215;0.2302;-2.7159;-15.754;3.3333;-2.19;-12.44;-36.62;245.99;27.22;-79.09;0.0;56.779;12.841732;77.664215;677.42;3046.691378646719;0.0;27.741936;0.0;6 / 22;2332;2016-11-30 16:02:51:069
-19.46;19.46;-14.25;9.4932;2.2609;0.967;-27.431;17.2022;-8.6215;0.2302;-2.7159;-15.754;3.3333;-2.19;-12.44;-36.62;245.99;27.22;-79.09;0.0;56.779;12.841732;77.664215;677.42;3046.691378646719;0.0;27.741936;0.0;6 / 22;2337;2016-11-30 16:02:51:074
-19.46;19.46;-14.25;8.4717;4.9169;0.4222;-23.6445;14.5463;-15.7449;0.979;-3.045;-14.6605;3.3333;-2.56;-11.44;-37.0;255.93;-13.33;-84.18;0.0;56.779;12.841732;77.664215;677.42;3046.691378646719;0.0;27.741936;0.0;6 / 22;2342;2016-11-30 16:02:51:079
-19.46;19.46;-14.25;8.4717;4.9169;0.4222;-23.6445;14.5463;-15.7449;0.979;-3.045;-14.6605;3.3333;-2.56;-11.44;-37.0;255.93;-13.33;-84.18;0.0;56.779;12.841732;77.664215;677.42;3046.691378646719;0.0;27.741936;0.0;6 / 22;2346;2016-11-30 16:02:51:083
-19.46;19.46;-14.25;8.4717;4.9169;0.4222;-23.6445;14.5463;-15.7449;0.979;-3.045;-14.6605;3.3333;-2.56;-11.44;-37.0;255.93;-13.33;-84.18;0.0;56.779;12.841732;77.664215;677.42;3046.691378646719;0.0;27.741936;0.0;6 / 22;2351;2016-11-30 16:02:51:088
-19.46;19.46;-14.25;8.4717;4.9169;0.4222;-23.6445;14.5463;-15.7449;0.979;-3.045;-14.6605;3.3333;-2.56;-11.44;-37.0;255.93;-13.33;-84.18;0.0;56.779;12.841732;77.664215;677.42;3046.691378646719;0.0;27.741936;0.0;6 / 22;2356;2016-11-30 16:02:51:093
-19.46;19.46;-14.25;8.4717;4.9169;0.4222;-23.6445;14.5463;-15.7449;0.979;-3.045;-14.6605;3.3333;-2.56;-11.44;-37.0;255.93;-13.33;-84.18;0.0;56.779;12.841732;77.664215;677.42;3046.691378646719;0.0;27.741936;0.0;6 / 22;2362;2016-11-30 16:02:51:099
-19.46;19.46;-14.25;8.4717;4.9169;0.4222;-23.6445;14.5463;-15.7449;0.979;-3.045;-14.6605;3.3333;-2.56;-11.44;-37.0;255.93;-13.33;-84.18;0.0;56.779;12.841732;77.664215;677.42;3046.691378646719;0.0;27.741936;0.0;6 / 22;2367;2016-11-30 16:02:51:104
-19.46;19.46;-14.25;8.4717;4.9169;0.4222;-23.6445;14.5463;-15.7449;0.979;-3.045;-14.6605;3.3333;-2.56;-11.44;-37.0;255.93;-13.33;-84.18;0.0;56.779;12.841732;77.664215;677.42;3046.691378646719;0.0;27.741936;0.0;6 / 22;2371;2016-11-30 16:02:51:108
-19.46;19.46;-14.25;8.4717;4.9169;0.4222;-23.6445;14.5463;-15.7449;0.979;-3.045;-14.6605;3.3333;-2.56;-11.44;-37.0;255.93;-13.33;-84.18;0.0;56.779;12.841732;77.664215;677.42;3046.691378646719;0.0;27.741936;0.0;6 / 22;2376;2016-11-30 16:02:51:113
-19.46;19.46;-14.25;8.4717;4.9169;0.4222;-23.6445;14.5463;-15.7449;0.979;-3.045;-14.6605;3.3333;-2.56;-11.44;-37.0;255.93;-13.33;-84.18;0.0;56.779;12.841732;77.664215;677.42;3046.691378646719;0.0;27.741936;0.0;6 / 22;2382;2016-11-30 16:02:51:119
-19.46;19.46;-14.25;8.4717;4.9169;0.4222;-23.6445;14.5463;-15.7449;0.979;-3.045;-14.6605;3.3333;-2.56;-11.44;-37.0;255.93;-13.33;-84.18;0.0;56.779;12.841732;77.664215;677.42;3046.691378646719;0.0;27.741936;0.0;6 / 22;2387;2016-11-30 16:02:51:124
-19.46;19.46;-14.25;8.4717;4.9169;0.4222;-23.6445;14.5463;-15.7449;0.979;-3.045;-14.6605;3.3333;-2.56;-11.44;-37.0;255.93;-13.33;-84.18;0.0;56.779;12.841732;77.664215;677.42;3046.691378646719;0.0;27.741936;0.0;6 / 22;2391;2016-11-30 16:02:51:128
-19.46;19.46;-14.25;8.4717;4.9169;0.4222;-23.6445;14.5463;-15.7449;0.979;-3.045;-14.6605;3.3333;-2.56;-11.44;-37.0;255.93;-13.33;-84.18;0.0;56.779;12.841732;77.664215;677.42;3046.691378646719;0.0;27.741936;0.0;6 / 22;2396;2016-11-30 16:02:51:133
-19.46;19.46;-14.25;8.4717;4.9169;0.4222;-23.6445;14.5463;-15.7449;0.979;-3.045;-14.6605;3.3333;-2.56;-11.44;-37.0;255.93;-13.33;-84.18;0.0;56.779;12.841732;77.664215;677.42;3046.691378646719;0.0;27.741936;0.0;6 / 22;2402;2016-11-30 16:02:51:139
-19.46;19.46;-14.25;8.4717;4.9169;0.4222;-23.6445;14.5463;-15.7449;0.979;-3.045;-14.6605;3.3333;-2.56;-11.44;-37.0;255.93;-13.33;-84.18;0.0;56.779;12.841732;77.664215;677.42;3046.691378646719;0.0;27.741936;0.0;6 / 22;2407;2016-11-30 16:02:51:144
-19.46;19.46;-14.25;8.4717;4.9169;0.4222;-23.6445;14.5463;-15.7449;0.979;-3.045;-14.6605;3.3333;-2.56;-11.44;-37.0;255.93;-13.33;-84.18;0.0;56.779;12.841732;77.664215;677.42;3046.691378646719;0.0;27.741936;0.0;6 / 22;2412;2016-11-30 16:02:51:149
-19.46;19.46;-14.25;8.4717;4.9169;0.4222;-23.6445;14.5463;-15.7449;0.979;-3.045;-14.6605;3.3333;-2.56;-11.44;-37.0;255.93;-13.33;-84.18;0.0;56.779;12.841732;77.664215;677.42;3046.691378646719;0.0;27.741936;0.0;6 / 22;2416;2016-11-30 16:02:51:153
-19.46;19.46;-14.25;8.4717;4.9169;0.4222;-23.6445;14.5463;-15.7449;0.979;-3.045;-14.6605;3.3333;-2.56;-11.44;-37.0;255.93;-13.33;-84.18;0.0;56.779;12.841732;77.664215;677.42;3046.691378646719;0.0;27.741936;0.0;6 / 22;2421;2016-11-30 16:02:51:158
-19.46;19.46;-14.25;8.4717;4.9169;0.4222;-23.6445;14.5463;-15.7449;0.979;-3.045;-14.6605;3.3333;-2.56;-11.44;-37.0;255.93;-13.33;-84.18;0.0;56.779;12.841732;77.664215;677.42;3046.691378646719;0.0;27.741936;0.0;6 / 22;2427;2016-11-30 16:02:51:164
-19.46;19.46;-14.25;8.4717;4.9169;0.4222;-23.6445;14.5463;-15.7449;0.979;-3.045;-14.6605;3.3333;-2.56;-11.44;-37.0;255.93;-13.33;-84.18;0.0;56.779;12.841732;77.664215;677.42;3046.691378646719;0.0;27.741936;0.0;6 / 22;2431;2016-11-30 16:02:51:168
-19.46;19.46;-14.25;8.4717;4.9169;0.4222;-23.6445;14.5463;-15.7449;0.979;-3.045;-14.6605;3.3333;-2.56;-11.44;-37.0;255.93;-13.33;-84.18;0.0;56.779;12.841732;77.664215;677.42;3046.691378646719;0.0;27.741936;0.0;6 / 22;2438;2016-11-30 16:02:51:175
-19.46;19.46;-14.25;8.4717;4.9169;0.4222;-23.6445;14.5463;-15.7449;0.979;-3.045;-14.6605;3.3333;-2.56;-11.44;-37.0;255.93;-13.33;-84.18;0.0;56.779;12.841732;77.664215;677.42;3046.691378646719;0.0;27.741936;0.0;6 / 22;2442;2016-11-30 16:02:51:179
-19.46;19.46;-14.25;8.4717;4.9169;0.4222;-23.6445;14.5463;-15.7449;0.979;-3.045;-14.6605;3.3333;-2.56;-11.44;-37.0;255.93;-13.33;-84.18;0.0;56.779;12.841732;77.664215;677.42;3046.691378646719;0.0;27.741936;0.0;6 / 22;2447;2016-11-30 16:02:51:184
-19.46;19.46;-14.25;8.4717;4.9169;0.4222;-23.6445;14.5463;-15.7449;0.979;-3.045;-14.6605;3.3333;-2.56;-11.44;-37.0;255.93;-13.33;-84.18;0.0;56.779;12.841732;77.664215;677.42;3046.691378646719;0.0;27.741936;0.0;6 / 22;2452;2016-11-30 16:02:51:189
-19.46;19.46;-14.25;8.4717;4.9169;0.4222;-23.6445;14.5463;-15.7449;0.979;-3.045;-14.6605;3.3333;-2.56;-11.44;-37.0;255.93;-13.33;-84.18;0.0;56.779;12.841732;77.664215;677.42;3046.691378646719;0.0;27.741936;0.0;6 / 22;2456;2016-11-30 16:02:51:193
-19.46;19.46;-14.25;8.4717;4.9169;0.4222;-23.6445;14.5463;-15.7449;0.979;-3.045;-14.6605;3.3333;-2.56;-11.44;-37.0;255.93;-13.33;-84.18;0.0;56.779;12.841732;77.664215;677.42;3046.691378646719;0.0;27.741936;0.0;6 / 22;2461;2016-11-30 16:02:51:198
-19.46;19.46;-14.25;8.4717;4.9169;0.4222;-23.6445;14.5463;-15.7449;0.979;-3.045;-14.6605;3.3333;-2.56;-11.44;-37.0;255.93;-13.33;-84.18;0.0;56.779;12.841732;77.664215;677.42;3046.691378646719;0.0;27.741936;0.0;6 / 22;2467;2016-11-30 16:02:51:204
-19.46;19.46;-14.25;8.4717;4.9169;0.4222;-23.6445;14.5463;-15.7449;0.979;-3.045;-14.6605;3.3333;-2.56;-11.44;-37.0;255.93;-13.33;-84.18;0.0;56.779;12.841732;77.664215;677.42;3046.691378646719;0.0;27.741936;0.0;6 / 22;2472;2016-11-30 16:02:51:209
-19.46;19.46;-14.25;8.4717;4.9169;0.4222;-23.6445;14.5463;-15.7449;0.979;-3.045;-14.6605;3.3333;-2.56;-11.44;-37.0;255.93;-13.33;-84.18;0.0;56.779;12.841732;77.664215;677.42;3046.691378646719;0.0;27.741936;0.0;6 / 22;2477;2016-11-30 16:02:51:214
-19.46;19.46;-14.25;8.4717;4.9169;0.4222;-23.6445;14.5463;-15.7449;0.979;-3.045;-14.6605;3.3333;-2.56;-11.44;-37.0;255.93;-13.33;-84.18;0.0;56.779;12.841732;77.664215;677.42;3046.691378646719;0.0;27.741936;0.0;6 / 22;2481;2016-11-30 16:02:51:218
-19.46;19.46;-14.25;8.4717;4.9169;0.4222;-23.6445;14.5463;-15.7449;0.979;-3.045;-14.6605;3.3333;-2.56;-11.44;-37.0;255.93;-13.33;-84.18;0.0;56.779;12.841732;77.664215;677.42;3046.691378646719;0.0;27.741936;0.0;6 / 22;2486;2016-11-30 16:02:51:223
-19.46;19.46;-14.25;8.4717;4.9169;0.4222;-23.6445;14.5463;-15.7449;0.979;-3.045;-14.6605;3.3333;-2.56;-11.44;-37.0;255.93;-13.33;-84.18;0.0;56.779;12.841732;77.664215;677.42;3046.691378646719;0.0;27.741936;0.0;6 / 22;2492;2016-11-30 16:02:51:229
-19.46;19.46;-14.25;8.4717;4.9169;0.4222;-23.6445;14.5463;-15.7449;0.979;-3.045;-14.6605;3.3333;-2.56;-11.44;-37.0;255.93;-13.33;-84.18;0.0;56.779;12.841732;77.664215;677.42;3046.691378646719;0.0;27.741936;0.0;6 / 22;2497;2016-11-30 16:02:51:234
-19.46;19.46;-14.25;8.4717;4.9169;0.4222;-23.6445;14.5463;-15.7449;0.979;-3.045;-14.6605;3.3333;-2.56;-11.44;-37.0;255.93;-13.33;-84.18;0.0;56.779;12.841732;77.664215;677.42;3046.691378646719;0.0;27.741936;0.0;6 / 22;2502;2016-11-30 16:02:51:239
-19.46;19.46;-14.25;8.4717;4.9169;0.4222;-23.6445;14.5463;-15.7449;0.979;-3.045;-14.6605;3.3333;-2.56;-11.44;-37.0;255.93;-13.33;-84.18;0.0;56.779;12.841732;77.664215;677.42;3046.691378646719;0.0;27.741936;0.0;6 / 22;2507;2016-11-30 16:02:51:244
-19.46;19.46;-14.25;8.4717;4.9169;0.4222;-23.6445;14.5463;-15.7449;0.979;-3.045;-14.6605;3.3333;-2.56;-11.44;-37.0;255.93;-13.33;-84.18;0.0;56.779;12.841732;77.664215;677.42;3046.691378646719;0.0;27.741936;0.0;6 / 22;2512;2016-11-30 16:02:51:249
-19.46;19.46;-14.25;8.4717;4.9169;0.4222;-23.6445;14.5463;-15.7449;0.979;-3.045;-14.6605;3.3333;-2.56;-11.44;-37.0;255.93;-13.33;-84.18;0.0;56.779;12.841732;77.664215;677.42;3046.691378646719;0.0;27.741936;0.0;6 / 22;2517;2016-11-30 16:02:51:254
-19.46;19.46;-14.25;8.4717;4.9169;0.4222;-23.6445;14.5463;-15.7449;0.979;-3.045;-14.6605;3.3333;-2.56;-11.44;-37.0;255.93;-13.33;-84.18;0.0;56.779;12.841732;77.664215;677.42;3046.691378646719;0.0;27.741936;0.0;6 / 22;2522;2016-11-30 16:02:51:259
-19.46;19.46;-14.25;8.4717;4.9169;0.4222;-23.6445;14.5463;-15.7449;0.979;-3.045;-14.6605;3.3333;-2.56;-11.44;-37.0;255.93;-13.33;-84.18;0.0;56.779;12.841732;77.664215;677.42;3046.691378646719;0.0;27.741936;0.0;6 / 22;2526;2016-11-30 16:02:51:263
-19.46;19.46;-14.25;8.4717;4.9169;0.4222;-23.6445;14.5463;-15.7449;0.979;-3.045;-14.6605;3.3333;-2.56;-11.44;-37.0;255.93;-13.33;-84.18;0.0;56.779;12.841732;77.664215;677.42;3046.691378646719;0.0;27.741936;0.0;6 / 22;2531;2016-11-30 16:02:51:268
-19.46;19.46;-14.25;8.4717;4.9169;0.4222;-23.6445;14.5463;-15.7449;0.979;-3.045;-14.6605;3.3333;-2.56;-11.44;-37.0;255.93;-13.33;-84.18;0.0;56.779;12.841732;77.664215;677.42;3046.691378646719;0.0;27.741936;0.0;6 / 22;2537;2016-11-30 16:02:51:274
-19.46;19.46;-14.25;8.4717;4.9169;0.4222;-23.6445;14.5463;-15.7449;0.979;-3.045;-14.6605;3.3333;-2.56;-11.44;-37.0;255.93;-13.33;-84.18;0.0;56.779;12.841732;77.664215;677.42;3046.691378646719;0.0;27.741936;0.0;6 / 22;2542;2016-11-30 16:02:51:279
-19.46;19.46;-14.25;8.4717;4.9169;0.4222;-23.6445;14.5463;-15.7449;0.979;-3.045;-14.6605;3.3333;-2.56;-11.44;-37.0;255.93;-13.33;-84.18;0.0;56.779;12.841732;77.664215;677.42;3046.691378646719;0.0;27.741936;0.0;6 / 22;2546;2016-11-30 16:02:51:283
-19.46;19.46;-14.25;8.4717;4.9169;0.4222;-23.6445;14.5463;-15.7449;0.979;-3.045;-14.6605;3.3333;-2.56;-11.44;-37.0;255.93;-13.33;-84.18;0.0;56.779;12.841732;77.664215;677.42;3046.691378646719;0.0;27.741936;0.0;6 / 22;2551;2016-11-30 16:02:51:288
-19.46;19.46;-14.25;8.4717;4.9169;0.4222;-23.6445;14.5463;-15.7449;0.979;-3.045;-14.6605;3.3333;-2.56;-11.44;-37.0;255.93;-13.33;-84.18;0.0;56.779;12.841732;77.664215;677.42;3046.691378646719;0.0;27.741936;0.0;6 / 22;2557;2016-11-30 16:02:51:294
-19.46;19.46;-14.25;8.4717;4.9169;0.4222;-23.6445;14.5463;-15.7449;0.979;-3.045;-14.6605;3.3333;-2.56;-11.44;-37.0;255.93;-13.33;-84.18;0.0;56.779;12.841732;77.664215;677.42;3046.691378646719;0.0;27.741936;0.0;6 / 22;2562;2016-11-30 16:02:51:299
