sep=;
ACCELEROMETER X (m/s²);ACCELEROMETER Y (m/s²);ACCELEROMETER Z (m/s²);GRAVITY X (m/s²);GRAVITY Y (m/s²);GRAVITY Z (m/s²);LINEAR ACCELERATION X (m/s²);LINEAR ACCELERATION Y (m/s²);LINEAR ACCELERATION Z (m/s²);GYROSCOPE X (rad/s);GYROSCOPE Y (rad/s);GYROSCOPE Z (rad/s);LIGHT (lux);MAGNETIC FIELD X (μT);MAGNETIC FIELD Y (μT);MAGNETIC FIELD Z (μT);ORIENTATION Z (azimuth °);ORIENTATION X (pitch °);ORIENTATION Y (roll °);PROXIMITY (i);SOUND LEVEL (dB);LOCATION Latitude : ;LOCATION Longitude : ;LOCATION Altitude ( m);LOCATION Altitude-google ( m);LOCATION Speed ( Kmh);LOCATION Accuracy ( m);LOCATION ORIENTATION (°);Satellites in range;Time since start in ms ;YYYY-MO-DD HH-MI-SS_SSS
0.92;2.299;8.735;2.6695;4.0724;8.5262;-1.757;-0.7082;0.5176;-0.2351;1.2111;0.0464;256.7568;1.5;-33.94;-1.69;183.39;-25.31;-22.0;1.0;44.776;12.845108;77.66332;;3063.1360279499304;;113.158066;;0 / 22;51;2016-11-30 16:01:42:259
0.92;2.299;8.735;2.6695;4.0724;8.5262;-1.757;-0.7082;0.5176;-0.2351;1.2111;0.0464;256.7568;1.5;-33.94;-1.69;183.39;-25.31;-22.0;1.0;44.776;12.845108;77.66332;;3063.1360279499304;;113.158066;;0 / 22;83;2016-11-30 16:01:42:291
0.92;2.299;8.735;2.6695;4.0724;8.5262;-1.757;-0.7082;0.5176;-0.2351;1.2111;0.0464;256.7568;1.5;-33.94;-1.69;183.39;-25.31;-22.0;1.0;44.776;12.845108;77.66332;;3063.1360279499304;;113.158066;;0 / 22;83;2016-11-30 16:01:42:291
0.92;2.299;8.735;2.6695;4.0724;8.5262;-1.757;-0.7082;0.5176;-0.2351;1.2111;0.0464;256.7568;1.5;-33.94;-1.69;183.39;-25.31;-22.0;1.0;44.776;12.845108;77.66332;;3063.1360279499304;;113.158066;;0 / 22;84;2016-11-30 16:01:42:292
0.92;2.299;8.735;2.6695;4.0724;8.5262;-1.757;-0.7082;0.5176;-0.2351;1.2111;0.0464;256.7568;1.5;-33.94;-1.69;183.39;-25.31;-22.0;1.0;44.776;12.845108;77.66332;;3063.1360279499304;;113.158066;;0 / 22;84;2016-11-30 16:01:42:292
0.92;2.299;8.735;2.6695;4.0724;8.5262;-1.757;-0.7082;0.5176;-0.2351;1.2111;0.0464;256.7568;1.5;-33.94;-1.69;183.39;-25.31;-22.0;1.0;44.776;12.845108;77.66332;;3063.1360279499304;;113.158066;;0 / 22;84;2016-11-30 16:01:42:292
0.92;2.299;8.735;2.6695;4.0724;8.5262;-1.757;-0.7082;0.5176;-0.2351;1.2111;0.0464;256.7568;1.5;-33.94;-1.69;183.39;-25.31;-22.0;1.0;44.776;12.845108;77.66332;;3063.1360279499304;;113.158066;;0 / 22;85;2016-11-30 16:01:42:293
0.92;2.299;8.735;2.6695;4.0724;8.5262;-1.757;-0.7082;0.5176;-0.2351;1.2111;0.0464;256.7568;1.5;-33.94;-1.69;183.39;-25.31;-22.0;1.0;44.776;12.845108;77.66332;;3063.1360279499304;;113.158066;;0 / 22;87;2016-11-30 16:01:42:295
0.92;2.299;8.735;2.6695;4.0724;8.5262;-1.757;-0.7082;0.5176;-0.2351;1.2111;0.0464;256.7568;1.5;-33.94;-1.69;183.39;-25.31;-22.0;1.0;44.776;12.845108;77.66332;;3063.1360279499304;;113.158066;;0 / 22;91;2016-11-30 16:01:42:299
0.92;2.299;8.735;2.6695;4.0724;8.5262;-1.757;-0.7082;0.5176;-0.2351;1.2111;0.0464;256.7568;1.5;-33.94;-1.69;183.39;-25.31;-22.0;1.0;44.776;12.845108;77.66332;;3063.1360279499304;;113.158066;;0 / 22;96;2016-11-30 16:01:42:304
0.92;2.299;8.735;2.6695;4.0724;8.5262;-1.757;-0.7082;0.5176;-0.2351;1.2111;0.0464;256.7568;1.5;-33.94;-1.69;183.39;-25.31;-22.0;1.0;44.776;12.845108;77.66332;;3063.1360279499304;;113.158066;;0 / 22;101;2016-11-30 16:01:42:309
0.92;2.299;8.735;2.6695;4.0724;8.5262;-1.757;-0.7082;0.5176;-0.2351;1.2111;0.0464;256.7568;1.5;-33.94;-1.69;183.39;-25.31;-22.0;1.0;44.776;12.845108;77.66332;;3063.1360279499304;;113.158066;;0 / 22;106;2016-11-30 16:01:42:314
0.92;2.299;8.735;2.6695;4.0724;8.5262;-1.757;-0.7082;0.5176;-0.2351;1.2111;0.0464;256.7568;1.5;-33.94;-1.69;183.39;-25.31;-22.0;1.0;44.776;12.845108;77.66332;;3063.1360279499304;;113.158066;;0 / 22;111;2016-11-30 16:01:42:319
0.92;2.299;8.735;2.6695;4.0724;8.5262;-1.757;-0.7082;0.5176;-0.2351;1.2111;0.0464;256.7568;1.5;-33.94;-1.69;183.39;-25.31;-22.0;1.0;44.776;12.845108;77.66332;;3063.1360279499304;;113.158066;;0 / 22;117;2016-11-30 16:01:42:325
0.92;2.299;8.735;2.6695;4.0724;8.5262;-1.757;-0.7082;0.5176;-0.2351;1.2111;0.0464;256.7568;1.5;-33.94;-1.69;183.39;-25.31;-22.0;1.0;44.776;12.845108;77.66332;;3063.1360279499304;;113.158066;;0 / 22;122;2016-11-30 16:01:42:330
0.92;2.299;8.735;2.6695;4.0724;8.5262;-1.757;-0.7082;0.5176;-0.2351;1.2111;0.0464;256.7568;1.5;-33.94;-1.69;183.39;-25.31;-22.0;1.0;44.776;12.845108;77.66332;;3063.1360279499304;;113.158066;;0 / 22;127;2016-11-30 16:01:42:335
0.92;2.299;8.735;2.6695;4.0724;8.5262;-1.757;-0.7082;0.5176;-0.2351;1.2111;0.0464;256.7568;1.5;-33.94;-1.69;183.39;-25.31;-22.0;1.0;44.776;12.845108;77.66332;;3063.1360279499304;;113.158066;;0 / 22;131;2016-11-30 16:01:42:339
0.92;2.299;8.735;2.6695;4.0724;8.5262;-1.757;-0.7082;0.5176;-0.2351;1.2111;0.0464;256.7568;1.5;-33.94;-1.69;183.39;-25.31;-22.0;1.0;44.776;12.845108;77.66332;;3063.1360279499304;;113.158066;;0 / 22;136;2016-11-30 16:01:42:344
0.92;2.299;8.735;2.6695;4.0724;8.5262;-1.757;-0.7082;0.5176;-0.2351;1.2111;0.0464;256.7568;1.5;-33.94;-1.69;183.39;-25.31;-22.0;1.0;44.776;12.845108;77.66332;;3063.1360279499304;;113.158066;;0 / 22;142;2016-11-30 16:01:42:350
0.92;2.299;8.735;2.6695;4.0724;8.5262;-1.757;-0.7082;0.5176;-0.2351;1.2111;0.0464;256.7568;1.5;-33.94;-1.69;183.39;-25.31;-22.0;1.0;44.776;12.845108;77.66332;;3063.1360279499304;;113.158066;;0 / 22;147;2016-11-30 16:01:42:355
0.92;2.299;8.735;2.6695;4.0724;8.5262;-1.757;-0.7082;0.5176;-0.2351;1.2111;0.0464;256.7568;1.5;-33.94;-1.69;183.39;-25.31;-22.0;1.0;44.776;12.845108;77.66332;;3063.1360279499304;;113.158066;;0 / 22;152;2016-11-30 16:01:42:360
0.92;2.299;8.735;2.6695;4.0724;8.5262;-1.757;-0.7082;0.5176;-0.2351;1.2111;0.0464;256.7568;1.5;-33.94;-1.69;183.39;-25.31;-22.0;1.0;44.776;12.845108;77.66332;;3063.1360279499304;;113.158066;;0 / 22;156;2016-11-30 16:01:42:364
0.92;2.299;8.735;2.6695;4.0724;8.5262;-1.757;-0.7082;0.5176;-0.2351;1.2111;0.0464;256.7568;1.5;-33.94;-1.69;183.39;-25.31;-22.0;1.0;44.776;12.845108;77.66332;;3063.1360279499304;;113.158066;;0 / 22;161;2016-11-30 16:01:42:369
0.92;2.299;8.735;2.6695;4.0724;8.5262;-1.757;-0.7082;0.5176;-0.2351;1.2111;0.0464;256.7568;1.5;-33.94;-1.69;183.39;-25.31;-22.0;1.0;44.776;12.845108;77.66332;;3063.1360279499304;;113.158066;;0 / 22;166;2016-11-30 16:01:42:374
0.92;2.299;8.735;2.6695;4.0724;8.5262;-1.757;-0.7082;0.5176;-0.2351;1.2111;0.0464;256.7568;1.5;-33.94;-1.69;183.39;-25.31;-22.0;1.0;44.776;12.845108;77.66332;;3063.1360279499304;;113.158066;;0 / 22;172;2016-11-30 16:01:42:380
0.92;2.299;8.735;2.6695;4.0724;8.5262;-1.757;-0.7082;0.5176;-0.2351;1.2111;0.0464;256.7568;1.5;-33.94;-1.69;183.39;-25.31;-22.0;1.0;44.776;12.845108;77.66332;;3063.1360279499304;;113.158066;;0 / 22;177;2016-11-30 16:01:42:385
0.92;2.299;8.735;2.6695;4.0724;8.5262;-1.757;-0.7082;0.5176;-0.2351;1.2111;0.0464;256.7568;1.5;-33.94;-1.69;183.39;-25.31;-22.0;1.0;44.776;12.845108;77.66332;;3063.1360279499304;;113.158066;;0 / 22;182;2016-11-30 16:01:42:390
0.92;2.299;8.735;2.6695;4.0724;8.5262;-1.757;-0.7082;0.5176;-0.2351;1.2111;0.0464;256.7568;1.5;-33.94;-1.69;183.39;-25.31;-22.0;1.0;44.776;12.845108;77.66332;;3063.1360279499304;;113.158066;;0 / 22;187;2016-11-30 16:01:42:395
0.92;2.299;8.735;2.6695;4.0724;8.5262;-1.757;-0.7082;0.5176;-0.2351;1.2111;0.0464;256.7568;1.5;-33.94;-1.69;183.39;-25.31;-22.0;1.0;44.776;12.845108;77.66332;;3063.1360279499304;;113.158066;;0 / 22;191;2016-11-30 16:01:42:399
0.92;2.299;8.735;2.6695;4.0724;8.5262;-1.757;-0.7082;0.5176;-0.2351;1.2111;0.0464;256.7568;1.5;-33.94;-1.69;183.39;-25.31;-22.0;1.0;44.776;12.845108;77.66332;;3063.1360279499304;;113.158066;;0 / 22;196;2016-11-30 16:01:42:404
0.92;2.299;8.735;2.6695;4.0724;8.5262;-1.757;-0.7082;0.5176;-0.2351;1.2111;0.0464;256.7568;1.5;-33.94;-1.69;183.39;-25.31;-22.0;1.0;44.776;12.845108;77.66332;;3063.1360279499304;;113.158066;;0 / 22;202;2016-11-30 16:01:42:410
0.92;2.299;8.735;2.6695;4.0724;8.5262;-1.757;-0.7082;0.5176;-0.2351;1.2111;0.0464;256.7568;1.5;-33.94;-1.69;183.39;-25.31;-22.0;1.0;44.776;12.845108;77.66332;;3063.1360279499304;;113.158066;;0 / 22;207;2016-11-30 16:01:42:415
0.92;2.299;8.735;2.6695;4.0724;8.5262;-1.757;-0.7082;0.5176;-0.2351;1.2111;0.0464;256.7568;1.5;-33.94;-1.69;183.39;-25.31;-22.0;1.0;44.776;12.845108;77.66332;;3063.1360279499304;;113.158066;;0 / 22;211;2016-11-30 16:01:42:419
0.92;2.299;8.735;2.6695;4.0724;8.5262;-1.757;-0.7082;0.5176;-0.2351;1.2111;0.0464;256.7568;1.5;-33.94;-1.69;183.39;-25.31;-22.0;1.0;44.776;12.845108;77.66332;;3063.1360279499304;;113.158066;;0 / 22;216;2016-11-30 16:01:42:424
0.92;2.299;8.735;2.6695;4.0724;8.5262;-1.757;-0.7082;0.5176;-0.2351;1.2111;0.0464;256.7568;1.5;-33.94;-1.69;183.39;-25.31;-22.0;1.0;44.776;12.845108;77.66332;;3063.1360279499304;;113.158066;;0 / 22;222;2016-11-30 16:01:42:430
0.92;2.299;8.735;2.6695;4.0724;8.5262;-1.757;-0.7082;0.5176;-0.2351;1.2111;0.0464;256.7568;1.5;-33.94;-1.69;183.39;-25.31;-22.0;1.0;44.776;12.845108;77.66332;;3063.1360279499304;;113.158066;;0 / 22;227;2016-11-30 16:01:42:435
0.92;2.299;8.735;2.6695;4.0724;8.5262;-1.757;-0.7082;0.5176;-0.2351;1.2111;0.0464;256.7568;1.5;-33.94;-1.69;183.39;-25.31;-22.0;1.0;44.776;12.845108;77.66332;;3063.1360279499304;;113.158066;;0 / 22;232;2016-11-30 16:01:42:440
0.92;2.299;8.735;2.6695;4.0724;8.5262;-1.757;-0.7082;0.5176;-0.2351;1.2111;0.0464;256.7568;1.5;-33.94;-1.69;183.39;-25.31;-22.0;1.0;44.776;12.845108;77.66332;;3063.1360279499304;;113.158066;;0 / 22;237;2016-11-30 16:01:42:445
0.92;2.299;8.735;2.6695;4.0724;8.5262;-1.757;-0.7082;0.5176;-0.2351;1.2111;0.0464;256.7568;1.5;-33.94;-1.69;183.39;-25.31;-22.0;1.0;44.776;12.845108;77.66332;;3063.1360279499304;;113.158066;;0 / 22;241;2016-11-30 16:01:42:449
0.92;2.299;8.735;2.6695;4.0724;8.5262;-1.757;-0.7082;0.5176;-0.2351;1.2111;0.0464;256.7568;1.5;-33.94;-1.69;183.39;-25.31;-22.0;1.0;44.776;12.845108;77.66332;;3063.1360279499304;;113.158066;;0 / 22;246;2016-11-30 16:01:42:454
0.92;2.299;8.735;2.6695;4.0724;8.5262;-1.757;-0.7082;0.5176;-0.2351;1.2111;0.0464;256.7568;1.5;-33.94;-1.69;183.39;-25.31;-22.0;1.0;44.776;12.845108;77.66332;;3063.1360279499304;;113.158066;;0 / 22;251;2016-11-30 16:01:42:459
0.92;2.299;8.735;2.6695;4.0724;8.5262;-1.757;-0.7082;0.5176;-0.2351;1.2111;0.0464;256.7568;1.5;-33.94;-1.69;183.39;-25.31;-22.0;1.0;44.776;12.845108;77.66332;;3063.1360279499304;;113.158066;;0 / 22;257;2016-11-30 16:01:42:465
0.92;2.299;8.735;2.6695;4.0724;8.5262;-1.757;-0.7082;0.5176;-0.2351;1.2111;0.0464;256.7568;1.5;-33.94;-1.69;183.39;-25.31;-22.0;1.0;44.776;12.845108;77.66332;;3063.1360279499304;;113.158066;;0 / 22;262;2016-11-30 16:01:42:470
0.92;2.299;8.735;2.6695;4.0724;8.5262;-1.757;-0.7082;0.5176;-0.2351;1.2111;0.0464;256.7568;1.5;-33.94;-1.69;183.39;-25.31;-22.0;1.0;44.776;12.845108;77.66332;;3063.1360279499304;;113.158066;;0 / 22;267;2016-11-30 16:01:42:475
0.92;2.299;8.735;2.6695;4.0724;8.5262;-1.757;-0.7082;0.5176;-0.2351;1.2111;0.0464;256.7568;1.5;-33.94;-1.69;183.39;-25.31;-22.0;1.0;44.776;12.845108;77.66332;;3063.1360279499304;;113.158066;;0 / 22;272;2016-11-30 16:01:42:480
0.92;2.299;8.735;2.6695;4.0724;8.5262;-1.757;-0.7082;0.5176;-0.2351;1.2111;0.0464;256.7568;1.5;-33.94;-1.69;183.39;-25.31;-22.0;1.0;44.776;12.845108;77.66332;;3063.1360279499304;;113.158066;;0 / 22;276;2016-11-30 16:01:42:484
0.92;2.299;8.735;2.6695;4.0724;8.5262;-1.757;-0.7082;0.5176;-0.2351;1.2111;0.0464;256.7568;1.5;-33.94;-1.69;183.39;-25.31;-22.0;1.0;44.776;12.845108;77.66332;;3063.1360279499304;;113.158066;;0 / 22;282;2016-11-30 16:01:42:490
0.92;2.299;8.735;2.6695;4.0724;8.5262;-1.757;-0.7082;0.5176;-0.2351;1.2111;0.0464;256.7568;1.5;-33.94;-1.69;183.39;-25.31;-22.0;1.0;44.776;12.845108;77.66332;;3063.1360279499304;;113.158066;;0 / 22;287;2016-11-30 16:01:42:495
0.92;2.299;8.735;2.6695;4.0724;8.5262;-1.757;-0.7082;0.5176;-0.2351;1.2111;0.0464;256.7568;1.5;-33.94;-1.69;183.39;-25.31;-22.0;1.0;44.776;12.845108;77.66332;;3063.1360279499304;;113.158066;;0 / 22;292;2016-11-30 16:01:42:500
0.92;2.299;8.735;2.6695;4.0724;8.5262;-1.757;-0.7082;0.5176;-0.2351;1.2111;0.0464;256.7568;1.5;-33.94;-1.69;183.39;-25.31;-22.0;1.0;44.776;12.845108;77.66332;;3063.1360279499304;;113.158066;;0 / 22;297;2016-11-30 16:01:42:505
0.92;2.299;8.735;2.6695;4.0724;8.5262;-1.757;-0.7082;0.5176;-0.2351;1.2111;0.0464;256.7568;1.5;-33.94;-1.69;183.39;-25.31;-22.0;1.0;44.776;12.845108;77.66332;;3063.1360279499304;;113.158066;;0 / 22;301;2016-11-30 16:01:42:509
0.92;2.299;8.735;2.6695;4.0724;8.5262;-1.757;-0.7082;0.5176;-0.2351;1.2111;0.0464;256.7568;1.5;-33.94;-1.69;183.39;-25.31;-22.0;1.0;44.776;12.845108;77.66332;;3063.1360279499304;;113.158066;;0 / 22;306;2016-11-30 16:01:42:514
0.46;2.299;8.428;2.3699;4.0179;8.6352;-2.3699;-1.7298;0.0953;-0.2405;1.3802;0.048;256.7568;1.25;-34.56;-2.12;182.85;-24.5;-17.39;1.0;44.776;12.845108;77.66332;;3063.1360279499304;;113.158066;;0 / 22;312;2016-11-30 16:01:42:520
0.46;2.299;8.428;2.3699;4.0179;8.6352;-2.3699;-1.7298;0.0953;-0.2405;1.3802;0.048;256.7568;1.25;-34.56;-2.12;182.85;-24.5;-17.39;1.0;44.776;12.845108;77.66332;;3063.1360279499304;;113.158066;;0 / 22;317;2016-11-30 16:01:42:525
0.46;2.299;8.428;2.3699;4.0179;8.6352;-2.3699;-1.7298;0.0953;-0.2405;1.3802;0.048;161.3208;1.25;-34.56;-2.12;182.85;-24.5;-17.39;1.0;44.776;12.845108;77.66332;;3063.1360279499304;;113.158066;;0 / 22;322;2016-11-30 16:01:42:530
0.46;2.299;8.428;2.3699;4.0179;8.6352;-2.3699;-1.7298;0.0953;-0.2405;1.3802;0.048;161.3208;1.25;-34.56;-2.12;182.85;-24.5;-17.39;1.0;44.776;12.845108;77.66332;;3063.1360279499304;;113.158066;;0 / 22;326;2016-11-30 16:01:42:534
5.822;6.282;1.838;6.2925;7.0552;2.6014;0.5993;-0.6265;-0.4631;0.552;-1.1849;0.3831;161.3208;13.38;-23.62;15.38;182.85;-24.5;-17.39;1.0;44.776;12.845108;77.66332;;3063.1360279499304;;113.158066;;0 / 22;331;2016-11-30 16:01:42:539
5.822;6.282;1.838;6.2925;7.0552;2.6014;0.5993;-0.6265;-0.4631;0.552;-1.1849;0.3831;161.3208;13.38;-23.62;15.38;182.85;-24.5;-17.39;1.0;44.776;12.845108;77.66332;;3063.1360279499304;;113.158066;;0 / 22;336;2016-11-30 16:01:42:544
5.822;6.282;1.838;6.347;7.0552;2.5061;-0.5312;-0.7763;-0.6674;0.4895;-1.0611;0.3022;161.3208;13.38;-23.62;15.38;182.85;-24.5;-17.39;1.0;44.776;12.845108;77.66332;;3063.1360279499304;;113.158066;;0 / 22;342;2016-11-30 16:01:42:550
5.822;6.282;1.838;6.347;7.0552;2.5061;-0.5312;-0.7763;-0.6674;0.4895;-1.0611;0.3022;161.3208;13.38;-23.62;15.38;182.85;-24.5;-17.39;1.0;44.776;12.845108;77.66332;;3063.1360279499304;;113.158066;;0 / 22;347;2016-11-30 16:01:42:555
5.822;6.282;1.838;6.347;7.0552;2.5061;-0.5312;-0.7763;-0.6674;0.4895;-1.0611;0.3022;161.3208;13.38;-23.62;15.38;182.85;-24.5;-17.39;1.0;44.776;12.845108;77.66332;;3063.1360279499304;;113.158066;;0 / 22;352;2016-11-30 16:01:42:560
5.822;6.282;1.838;6.347;7.0552;2.5061;-0.5312;-0.7763;-0.6674;0.4895;-1.0611;0.3022;161.3208;13.38;-23.62;15.38;182.85;-24.5;-17.39;1.0;44.776;12.845108;77.66332;;3063.1360279499304;;113.158066;;0 / 22;356;2016-11-30 16:01:42:564
7.355;7.968;2.604;6.4151;7.0552;2.329;2.0158;3.2143;0.2724;0.447;-0.8293;0.1459;161.3208;13.31;-22.69;15.5;160.73;-45.96;-68.45;1.0;44.776;12.845108;77.66332;;3063.1360279499304;;113.158066;;0 / 22;361;2016-11-30 16:01:42:569
7.355;7.968;2.604;6.4151;7.0552;2.329;2.0158;3.2143;0.2724;0.447;-0.8293;0.1459;161.3208;13.31;-22.69;15.5;160.73;-45.96;-68.45;1.0;44.776;12.845108;77.66332;;3063.1360279499304;;113.158066;;0 / 22;366;2016-11-30 16:01:42:574
7.355;7.968;2.604;6.4151;7.0552;2.329;2.0158;3.2143;0.2724;0.447;-0.8293;0.1459;161.3208;13.31;-22.69;15.5;160.73;-45.96;-68.45;1.0;44.776;12.845108;77.66332;;3063.1360279499304;;113.158066;;0 / 22;371;2016-11-30 16:01:42:579
7.355;7.968;2.604;6.4151;7.0552;2.329;2.0158;3.2143;0.2724;0.447;-0.8293;0.1459;161.3208;13.31;-22.69;15.5;160.73;-45.96;-68.45;1.0;44.776;12.845108;77.66332;;3063.1360279499304;;113.158066;;0 / 22;377;2016-11-30 16:01:42:585
7.355;7.968;2.604;6.4151;7.0552;2.329;2.0158;3.2143;0.2724;0.447;-0.8293;0.1459;161.3208;13.31;-22.69;15.5;160.73;-45.96;-68.45;1.0;44.776;12.845108;77.66332;;3063.1360279499304;;113.158066;;0 / 22;382;2016-11-30 16:01:42:590
7.355;7.968;2.604;6.4151;7.0552;2.329;2.0158;3.2143;0.2724;0.447;-0.8293;0.1459;161.3208;13.31;-22.69;15.5;160.73;-45.96;-68.45;1.0;44.776;12.845108;77.66332;;3063.1360279499304;;113.158066;;0 / 22;387;2016-11-30 16:01:42:595
7.355;7.968;2.604;6.4151;7.0552;2.329;2.0158;3.2143;0.2724;0.447;-0.8293;0.1459;161.3208;13.31;-22.69;15.5;160.73;-45.96;-68.45;1.0;44.776;12.845108;77.66332;;3063.1360279499304;;113.158066;;0 / 22;392;2016-11-30 16:01:42:600
7.355;7.968;2.604;6.4151;7.0552;2.329;2.0158;3.2143;0.2724;0.447;-0.8293;0.1459;161.3208;13.31;-22.69;15.5;160.73;-45.96;-68.45;1.0;44.776;12.845108;77.66332;;3063.1360279499304;;113.158066;;0 / 22;396;2016-11-30 16:01:42:604
7.355;7.968;2.604;6.4151;7.0552;2.329;2.0158;3.2143;0.2724;0.447;-0.8293;0.1459;161.3208;13.31;-22.69;15.5;160.73;-45.96;-68.45;1.0;44.776;12.845108;77.66332;;3063.1360279499304;;113.158066;;0 / 22;401;2016-11-30 16:01:42:609
7.355;7.968;2.604;6.4151;7.0552;2.329;2.0158;3.2143;0.2724;0.447;-0.8293;0.1459;161.3208;13.31;-22.69;15.5;160.73;-45.96;-68.45;1.0;44.776;12.845108;77.66332;;3063.1360279499304;;113.158066;;0 / 22;407;2016-11-30 16:01:42:615
7.355;7.968;2.604;6.4151;7.0552;2.329;2.0158;3.2143;0.2724;0.447;-0.8293;0.1459;161.3208;13.31;-22.69;15.5;160.73;-45.96;-68.45;1.0;44.776;12.845108;77.66332;;3063.1360279499304;;113.158066;;0 / 22;411;2016-11-30 16:01:42:619
7.355;7.968;2.604;6.4151;7.0552;2.329;2.0158;3.2143;0.2724;0.447;-0.8293;0.1459;161.3208;13.31;-22.69;15.5;160.73;-45.96;-68.45;1.0;44.776;12.845108;77.66332;;3063.1360279499304;;113.158066;;0 / 22;416;2016-11-30 16:01:42:624
7.355;7.968;2.604;6.4151;7.0552;2.329;2.0158;3.2143;0.2724;0.447;-0.8293;0.1459;161.3208;13.31;-22.69;15.5;160.73;-45.96;-68.45;1.0;44.776;12.845108;77.66332;;3063.1360279499304;;113.158066;;0 / 22;422;2016-11-30 16:01:42:630
7.355;7.968;2.604;6.4151;7.0552;2.329;2.0158;3.2143;0.2724;0.447;-0.8293;0.1459;161.3208;13.31;-22.69;15.5;160.73;-45.96;-68.45;1.0;44.776;12.845108;77.66332;;3063.1360279499304;;113.158066;;0 / 22;427;2016-11-30 16:01:42:635
7.355;7.968;2.604;6.4151;7.0552;2.329;2.0158;3.2143;0.2724;0.447;-0.8293;0.1459;161.3208;13.31;-22.69;15.5;160.73;-45.96;-68.45;1.0;44.776;12.845108;77.66332;;3063.1360279499304;;113.158066;;0 / 22;432;2016-11-30 16:01:42:640
7.355;7.968;2.604;6.4151;7.0552;2.329;2.0158;3.2143;0.2724;0.447;-0.8293;0.1459;161.3208;13.31;-22.69;15.5;160.73;-45.96;-68.45;1.0;44.776;12.845108;77.66332;;3063.1360279499304;;113.158066;;0 / 22;436;2016-11-30 16:01:42:644
7.355;7.968;2.604;6.4151;7.0552;2.329;2.0158;3.2143;0.2724;0.447;-0.8293;0.1459;161.3208;13.31;-22.69;15.5;160.73;-45.96;-68.45;1.0;44.776;12.845108;77.66332;;3063.1360279499304;;113.158066;;0 / 22;441;2016-11-30 16:01:42:649
7.968;10.266;2.758;6.4287;7.0552;2.2473;2.7649;3.514;0.8172;0.4265;-0.7805;0.1047;161.3208;13.75;-22.25;15.69;160.31;-45.95;-70.05;1.0;44.776;12.845108;77.66332;;3063.1360279499304;;113.158066;;0 / 22;446;2016-11-30 16:01:42:654
7.968;10.266;2.758;6.4287;7.0552;2.2473;2.7649;3.514;0.8172;0.4265;-0.7805;0.1047;161.3208;13.75;-22.25;15.69;160.31;-45.95;-70.05;1.0;44.776;12.845108;77.66332;;3063.1360279499304;;113.158066;;0 / 22;452;2016-11-30 16:01:42:660
13.178;11.952;-2.451;6.4832;7.1642;1.648;6.0882;5.8567;-3.1735;0.8012;-0.8953;-0.306;161.3208;15.44;-20.37;16.56;160.31;-45.95;-70.05;1.0;44.776;12.845108;77.66332;;3063.1360279499304;;113.158066;;0 / 22;457;2016-11-30 16:01:42:665
13.178;11.952;-2.451;6.4832;7.1642;1.648;6.0882;5.8567;-3.1735;0.8012;-0.8953;-0.306;161.3208;15.44;-20.37;16.56;160.31;-45.95;-70.05;1.0;44.776;12.845108;77.66332;;3063.1360279499304;;113.158066;;0 / 22;462;2016-11-30 16:01:42:670
13.178;11.952;-2.451;6.4832;7.1642;1.648;6.0882;5.8567;-3.1735;0.8012;-0.8953;-0.306;95.1724;15.44;-20.37;16.56;160.31;-45.95;-70.05;1.0;44.776;12.845108;77.66332;;3063.1360279499304;;113.158066;;0 / 22;466;2016-11-30 16:01:42:674
5.822;6.895;-2.758;6.4832;7.1642;1.648;6.0882;5.8567;-3.1735;0.7884;-0.8647;-0.3395;95.1724;15.44;-20.37;16.56;160.31;-45.95;-70.05;1.0;44.776;12.845108;77.66332;;3063.1360279499304;;113.158066;;0 / 22;471;2016-11-30 16:01:42:679
5.822;6.895;-2.758;6.4559;7.2731;1.2939;-1.2531;-0.5312;-3.1326;0.7884;-0.8647;-0.3395;95.1724;16.56;-20.0;17.56;160.31;-45.95;-70.05;1.0;44.776;12.845108;77.66332;;3063.1360279499304;;113.158066;;0 / 22;476;2016-11-30 16:01:42:684
5.822;6.895;-2.758;6.4559;7.2731;1.2939;-1.2531;-0.5312;-3.1326;0.7884;-0.8647;-0.3395;95.1724;16.56;-20.0;17.56;160.31;-45.95;-70.05;1.0;50.729;12.845108;77.66332;;3063.1360279499304;;113.158066;;0 / 22;482;2016-11-30 16:01:42:690
5.822;6.895;-2.758;6.4559;7.2731;1.2939;-1.2531;-0.5312;-3.1326;0.7884;-0.8647;-0.3395;95.1724;16.56;-20.0;17.56;160.31;-45.95;-70.05;1.0;50.729;12.845108;77.66332;;3063.1360279499304;;113.158066;;0 / 22;487;2016-11-30 16:01:42:695
5.822;6.895;-2.758;6.4559;7.2731;1.2939;-1.2531;-0.5312;-3.1326;0.7884;-0.8647;-0.3395;95.1724;16.56;-20.0;17.56;160.31;-45.95;-70.05;1.0;50.729;12.845108;77.66332;;3063.1360279499304;;113.158066;;0 / 22;492;2016-11-30 16:01:42:700
5.822;6.895;-2.758;6.4559;7.2731;1.2939;-1.2531;-0.5312;-3.1326;0.7884;-0.8647;-0.3395;95.1724;16.56;-20.0;17.56;160.31;-45.95;-70.05;1.0;50.729;12.845108;77.66332;;3063.1360279499304;;113.158066;;0 / 22;497;2016-11-30 16:01:42:705
5.822;6.895;-2.758;6.4559;7.2731;1.2939;-1.2531;-0.5312;-3.1326;0.7884;-0.8647;-0.3395;95.1724;16.56;-20.0;17.56;160.31;-45.95;-70.05;1.0;50.729;12.845108;77.66332;;3063.1360279499304;;113.158066;;0 / 22;502;2016-11-30 16:01:42:710
5.822;6.895;-2.758;6.4559;7.2731;1.2939;-1.2531;-0.5312;-3.1326;0.7884;-0.8647;-0.3395;95.1724;16.56;-20.0;17.56;160.31;-45.95;-70.05;1.0;50.729;12.845108;77.66332;;3063.1360279499304;;113.158066;;0 / 22;507;2016-11-30 16:01:42:715
5.822;6.895;-2.758;6.4559;7.2731;1.2939;-1.2531;-0.5312;-3.1326;0.7884;-0.8647;-0.3395;95.1724;16.56;-20.0;17.56;160.31;-45.95;-70.05;1.0;50.729;12.845108;77.66332;;3063.1360279499304;;113.158066;;0 / 22;511;2016-11-30 16:01:42:719
5.822;6.895;-2.758;6.4559;7.2731;1.2939;-1.2531;-0.5312;-3.1326;0.7884;-0.8647;-0.3395;95.1724;16.56;-20.0;17.56;160.31;-45.95;-70.05;1.0;50.729;12.845108;77.66332;;3063.1360279499304;;113.158066;;0 / 22;516;2016-11-30 16:01:42:724
5.822;6.895;-2.758;6.4559;7.2731;1.2939;-1.2531;-0.5312;-3.1326;0.7884;-0.8647;-0.3395;95.1724;16.56;-20.0;17.56;160.31;-45.95;-70.05;1.0;50.729;12.845108;77.66332;;3063.1360279499304;;113.158066;;0 / 22;522;2016-11-30 16:01:42:730
5.822;6.895;-2.758;6.4559;7.2731;1.2939;-1.2531;-0.5312;-3.1326;0.7884;-0.8647;-0.3395;95.1724;16.56;-20.0;17.56;160.31;-45.95;-70.05;1.0;50.729;12.845108;77.66332;;3063.1360279499304;;113.158066;;0 / 22;527;2016-11-30 16:01:42:735
5.822;6.895;-2.758;6.4559;7.2731;1.2939;-1.2531;-0.5312;-3.1326;0.7884;-0.8647;-0.3395;95.1724;16.56;-20.0;17.56;160.31;-45.95;-70.05;1.0;50.729;12.845108;77.66332;;3063.1360279499304;;113.158066;;0 / 22;532;2016-11-30 16:01:42:740
5.822;6.895;-2.758;6.4559;7.2731;1.2939;-1.2531;-0.5312;-3.1326;0.7884;-0.8647;-0.3395;95.1724;16.56;-20.0;17.56;160.31;-45.95;-70.05;1.0;50.729;12.845108;77.66332;;3063.1360279499304;;113.158066;;0 / 22;536;2016-11-30 16:01:42:744
5.822;6.895;-2.758;6.4559;7.2731;1.2939;-1.2531;-0.5312;-3.1326;0.7884;-0.8647;-0.3395;95.1724;16.56;-20.0;17.56;160.31;-45.95;-70.05;1.0;50.729;12.845108;77.66332;;3063.1360279499304;;113.158066;;0 / 22;541;2016-11-30 16:01:42:749
5.822;6.895;-2.758;6.4559;7.2731;1.2939;-1.2531;-0.5312;-3.1326;0.7884;-0.8647;-0.3395;95.1724;16.56;-20.0;17.56;160.31;-45.95;-70.05;1.0;50.729;12.845108;77.66332;;3063.1360279499304;;113.158066;;0 / 22;546;2016-11-30 16:01:42:754
5.363;6.435;-1.225;6.4423;7.3004;1.1986;-1.2394;-0.8717;-2.724;0.8438;-0.8097;-0.3616;95.1724;16.38;-20.12;18.19;152.34;-47.85;-78.67;1.0;50.729;12.845108;77.66332;;3063.1360279499304;;113.158066;;0 / 22;560;2016-11-30 16:01:42:768
5.363;6.435;-1.225;6.4423;7.3004;1.1986;-1.2394;-0.8717;-2.724;0.8438;-0.8097;-0.3616;95.1724;16.38;-20.12;18.19;152.34;-47.85;-78.67;1.0;50.729;12.845108;77.66332;;3063.1360279499304;;113.158066;;0 / 22;560;2016-11-30 16:01:42:768
5.363;6.435;-1.225;6.4423;7.3004;1.1986;-1.2394;-0.8717;-2.724;0.8438;-0.8097;-0.3616;95.1724;16.38;-20.12;18.19;152.34;-47.85;-78.67;1.0;50.729;12.845108;77.66332;;3063.1360279499304;;113.158066;;0 / 22;561;2016-11-30 16:01:42:769
5.363;6.435;-1.225;6.4423;7.3004;1.1986;-1.2394;-0.8717;-2.724;0.8438;-0.8097;-0.3616;95.1724;16.38;-20.12;18.19;152.34;-47.85;-78.67;1.0;50.729;12.845108;77.66332;;3063.1360279499304;;113.158066;;0 / 22;567;2016-11-30 16:01:42:775
1.992;6.282;-2.758;6.1291;7.6409;0.5039;-1.6889;0.177;-0.5039;0.5421;0.0848;-0.4745;95.1724;16.56;-20.37;20.63;152.34;-47.85;-78.67;1.0;50.729;12.845108;77.66332;;3063.1360279499304;;113.158066;;0 / 22;572;2016-11-30 16:01:42:780
1.992;6.282;-2.758;6.1291;7.6409;0.5039;-1.6889;0.177;-0.5039;0.5421;0.0848;-0.4745;95.1724;16.56;-20.37;20.63;152.34;-47.85;-78.67;1.0;50.729;12.845108;77.66332;;3063.1360279499304;;113.158066;;0 / 22;577;2016-11-30 16:01:42:785
1.992;6.282;-2.758;6.1291;7.6409;0.5039;-1.6889;0.177;-0.5039;0.5421;0.0848;-0.4745;95.1724;16.56;-20.37;20.63;152.34;-47.85;-78.67;1.0;50.729;12.845108;77.66332;;3063.1360279499304;;113.158066;;0 / 22;581;2016-11-30 16:01:42:789
1.992;6.282;-2.758;6.1291;7.6409;0.5039;-1.6889;0.177;-0.5039;0.5421;0.0848;-0.4745;95.1724;16.56;-20.37;20.63;152.34;-47.85;-78.67;1.0;50.729;12.845108;77.66332;;3063.1360279499304;;113.158066;;0 / 22;586;2016-11-30 16:01:42:794
1.992;6.282;-2.758;6.1291;7.6409;0.5039;-1.6889;0.177;-0.5039;0.5421;0.0848;-0.4745;95.1724;16.56;-20.37;20.63;152.34;-47.85;-78.67;1.0;50.729;12.845108;77.66332;;3063.1360279499304;;113.158066;;0 / 22;591;2016-11-30 16:01:42:799
1.992;6.282;-2.758;6.1291;7.6409;0.5039;-1.6889;0.177;-0.5039;0.5421;0.0848;-0.4745;95.1724;16.56;-20.37;20.63;152.34;-47.85;-78.67;1.0;50.729;12.845108;77.66332;;3063.1360279499304;;113.158066;;0 / 22;597;2016-11-30 16:01:42:805
1.992;6.282;-2.758;6.1291;7.6409;0.5039;-1.6889;0.177;-0.5039;0.5421;0.0848;-0.4745;95.1724;16.56;-20.37;20.63;152.34;-47.85;-78.67;1.0;50.729;12.845108;77.66332;;3063.1360279499304;;113.158066;;0 / 22;602;2016-11-30 16:01:42:810
1.992;6.282;-2.758;6.1291;7.6409;0.5039;-1.6889;0.177;-0.5039;0.5421;0.0848;-0.4745;95.1724;16.56;-20.37;20.63;152.34;-47.85;-78.67;1.0;50.729;12.845108;77.66332;;3063.1360279499304;;113.158066;;0 / 22;606;2016-11-30 16:01:42:814
1.992;6.282;-2.758;6.1291;7.6409;0.5039;-1.6889;0.177;-0.5039;0.5421;0.0848;-0.4745;95.1724;16.56;-20.37;20.63;152.34;-47.85;-78.67;1.0;50.729;12.845108;77.66332;;3063.1360279499304;;113.158066;;0 / 22;611;2016-11-30 16:01:42:819
2.299;7.049;-3.216;6.0746;7.6954;0.4222;-3.4731;-1.2667;-2.2609;0.6403;-0.1317;-0.5424;95.1724;16.5;-20.12;20.13;145.54;-51.17;-85.3;1.0;50.729;12.845108;77.66332;;3063.1360279499304;;113.158066;;0 / 22;617;2016-11-30 16:01:42:825
2.299;7.049;-3.216;6.0746;7.6954;0.4222;-3.4731;-1.2667;-2.2609;0.6403;-0.1317;-0.5424;95.1724;16.5;-20.12;20.13;145.54;-51.17;-85.3;1.0;50.729;12.845108;77.66332;;3063.1360279499304;;113.158066;;0 / 22;622;2016-11-30 16:01:42:830
2.299;7.049;-3.216;6.0746;7.6954;0.4222;-3.4731;-1.2667;-2.2609;0.6403;-0.1317;-0.5424;95.1724;16.5;-20.12;20.13;145.54;-51.17;-85.3;1.0;50.729;12.845108;77.66332;;3063.1360279499304;;113.158066;;0 / 22;627;2016-11-30 16:01:42:835
2.299;7.049;-3.216;6.0746;7.6954;0.4222;-3.4731;-1.2667;-2.2609;0.6403;-0.1317;-0.5424;95.1724;16.5;-20.12;20.13;145.54;-51.17;-85.3;1.0;50.729;12.845108;77.66332;;3063.1360279499304;;113.158066;;0 / 22;632;2016-11-30 16:01:42:840
5.516;8.734;5.516;5.8703;7.8588;0.0545;2.7104;3.3233;1.0079;0.7483;-0.1486;-0.3791;95.1724;16.5;-19.5;19.5;145.54;-51.17;-85.3;1.0;50.729;12.845108;77.66332;;3063.1360279499304;;113.158066;;0 / 22;637;2016-11-30 16:01:42:845
5.516;8.734;5.516;5.8703;7.8588;0.0545;2.7104;3.3233;1.0079;0.7483;-0.1486;-0.3791;95.1724;16.5;-19.5;19.5;145.54;-51.17;-85.3;1.0;50.729;12.845108;77.66332;;3063.1360279499304;;113.158066;;0 / 22;641;2016-11-30 16:01:42:849
5.516;8.734;5.516;5.8703;7.8588;0.0545;2.7104;3.3233;1.0079;0.7483;-0.1486;-0.3791;95.1724;16.5;-19.5;19.5;145.54;-51.17;-85.3;1.0;50.729;12.845108;77.66332;;3063.1360279499304;;113.158066;;0 / 22;646;2016-11-30 16:01:42:854
5.516;8.734;5.516;5.8703;7.8588;0.0545;2.7104;3.3233;1.0079;0.7483;-0.1486;-0.3791;95.1724;16.5;-19.5;19.5;145.54;-51.17;-85.3;1.0;50.729;12.845108;77.66332;;3063.1360279499304;;113.158066;;0 / 22;651;2016-11-30 16:01:42:859
5.516;8.734;5.516;5.8703;7.8588;0.0545;2.7104;3.3233;1.0079;0.7483;-0.1486;-0.3791;95.1724;16.5;-19.5;19.5;145.54;-51.17;-85.3;1.0;50.729;12.845108;77.66332;;3063.1360279499304;;113.158066;;0 / 22;657;2016-11-30 16:01:42:865
5.516;8.734;5.516;5.8703;7.8588;0.0545;2.7104;3.3233;1.0079;0.7483;-0.1486;-0.3791;95.1724;16.5;-19.5;19.5;145.54;-51.17;-85.3;1.0;50.729;12.845108;77.66332;;3063.1360279499304;;113.158066;;0 / 22;661;2016-11-30 16:01:42:869
5.516;8.734;5.516;5.8703;7.8588;0.0545;2.7104;3.3233;1.0079;0.7483;-0.1486;-0.3791;95.1724;16.5;-19.5;19.5;145.54;-51.17;-85.3;1.0;50.729;12.845108;77.66332;;3063.1360279499304;;113.158066;;0 / 22;666;2016-11-30 16:01:42:874
7.355;6.895;3.83;5.8567;7.8588;0.0136;1.4982;-0.967;3.8136;0.5127;0.0633;-0.1813;95.1724;16.75;-18.75;19.06;143.14;-53.24;-89.47;1.0;50.729;12.845108;77.66332;;3063.1360279499304;;113.158066;;0 / 22;671;2016-11-30 16:01:42:879
7.355;6.895;3.83;5.8567;7.8588;0.0136;1.4982;-0.967;3.8136;0.5127;0.0633;-0.1813;95.1724;16.75;-18.75;19.06;143.14;-53.24;-89.47;1.0;50.729;12.845108;77.66332;;3063.1360279499304;;113.158066;;0 / 22;677;2016-11-30 16:01:42:885
7.355;6.895;3.83;5.8567;7.8588;0.0136;1.4982;-0.967;3.8136;0.5127;0.0633;-0.1813;95.1724;16.75;-18.75;19.06;143.14;-53.24;-89.47;1.0;50.729;12.845108;77.66332;;3063.1360279499304;;113.158066;;0 / 22;682;2016-11-30 16:01:42:890
7.355;6.895;3.83;5.8567;7.8588;0.0136;1.4982;-0.967;3.8136;0.5127;0.0633;-0.1813;95.1724;16.75;-18.75;19.06;143.14;-53.24;-89.47;1.0;50.729;12.845108;77.66332;;3063.1360279499304;;113.158066;;0 / 22;687;2016-11-30 16:01:42:895
2.299;5.21;-3.37;5.8294;7.886;-0.0545;-3.5412;-2.9828;-3.1599;0.2392;0.21;-0.2103;95.1724;17.56;-18.19;19.56;143.14;-53.24;-89.47;1.0;50.729;12.845108;77.66332;;3063.1360279499304;;113.158066;;0 / 22;691;2016-11-30 16:01:42:899
2.299;5.21;-3.37;5.8294;7.886;-0.0545;-3.5412;-2.9828;-3.1599;0.2392;0.21;-0.2103;95.1724;17.56;-18.19;19.56;143.14;-53.24;-89.47;1.0;50.729;12.845108;77.66332;;3063.1360279499304;;113.158066;;0 / 22;697;2016-11-30 16:01:42:905
2.299;5.21;-3.37;5.8294;7.886;-0.0545;-3.5412;-2.9828;-3.1599;0.2392;0.21;-0.2103;95.1724;17.56;-18.19;19.56;143.14;-53.24;-89.47;1.0;50.729;12.845108;77.66332;;3063.1360279499304;;113.158066;;0 / 22;701;2016-11-30 16:01:42:909
3.217;6.742;-3.371;5.8158;7.8997;-0.0681;-3.0645;-1.6208;-3.4459;0.2446;0.1993;-0.1974;95.1724;17.56;-18.19;19.56;141.13;-53.53;-90.54;1.0;50.729;12.845108;77.66332;;3063.1360279499304;;113.158066;;0 / 22;707;2016-11-30 16:01:42:915
3.217;6.742;-3.371;5.8158;7.8997;-0.0681;-3.0645;-1.6208;-3.4459;0.2446;0.1993;-0.1974;95.1724;17.56;-18.19;19.56;141.13;-53.53;-90.54;1.0;50.729;12.845108;77.66332;;3063.1360279499304;;113.158066;;0 / 22;712;2016-11-30 16:01:42:920
3.217;6.742;-3.371;5.8158;7.8997;-0.0681;-3.0645;-1.6208;-3.4459;0.2446;0.1993;-0.1974;95.1724;17.56;-18.19;19.56;141.13;-53.53;-90.54;1.0;50.729;12.845108;77.66332;;3063.1360279499304;;113.158066;;0 / 22;717;2016-11-30 16:01:42:925
7.202;10.266;-0.306;5.7749;7.9269;-0.0817;-0.2588;0.9534;-1.757;0.2034;0.1492;-0.2509;95.1724;18.56;-17.56;19.19;141.13;-53.53;-90.54;1.0;50.729;12.845108;77.66332;;3063.1360279499304;;113.158066;;0 / 22;721;2016-11-30 16:01:42:929
7.202;10.266;-0.306;5.7749;7.9269;-0.0817;-0.2588;0.9534;-1.757;0.2034;0.1492;-0.2509;95.1724;18.56;-17.56;19.19;141.13;-53.53;-90.54;1.0;50.729;12.845108;77.66332;;3063.1360279499304;;113.158066;;0 / 22;727;2016-11-30 16:01:42:935
7.202;10.266;-0.306;5.7749;7.9269;-0.0817;-0.2588;0.9534;-1.757;0.2034;0.1492;-0.2509;95.1724;18.56;-17.56;19.19;141.13;-53.53;-90.54;1.0;50.729;12.845108;77.66332;;3063.1360279499304;;113.158066;;0 / 22;732;2016-11-30 16:01:42:940
7.508;10.419;0.612;5.7477;7.9405;-0.0953;1.4574;2.1656;0.6946;0.1778;0.0933;-0.1756;95.1724;18.63;-17.5;19.44;141.13;-53.53;-90.54;1.0;50.729;12.845108;77.66332;;3063.1360279499304;;113.158066;;0 / 22;737;2016-11-30 16:01:42:945
7.508;10.419;0.612;5.7477;7.9405;-0.0953;1.4574;2.1656;0.6946;0.1778;0.0933;-0.1756;95.1724;18.63;-17.5;19.44;141.13;-53.53;-90.54;1.0;50.729;12.845108;77.66332;;3063.1360279499304;;113.158066;;0 / 22;742;2016-11-30 16:01:42:950
7.508;10.419;0.612;5.7477;7.9405;-0.0953;1.4574;2.1656;0.6946;0.1893;0.0772;-0.1936;95.1724;18.63;-17.5;19.44;141.13;-53.53;-90.54;1.0;50.729;12.845108;77.66332;;3063.1360279499304;;113.158066;;0 / 22;747;2016-11-30 16:01:42:955
5.669;8.581;3.371;5.7477;7.9405;-0.0953;1.4574;2.1656;0.6946;0.1893;0.0772;-0.1936;95.1724;18.63;-17.5;19.44;141.13;-53.53;-90.54;1.0;50.729;12.845108;77.66332;;3063.1360279499304;;113.158066;;0 / 22;751;2016-11-30 16:01:42:959
5.669;8.581;3.371;5.7204;7.9678;-0.1089;-0.0545;0.6129;3.4731;0.1893;0.0772;-0.1936;95.1724;18.44;-17.56;19.38;142.2;-54.1;-90.95;1.0;50.729;12.845108;77.66332;;3063.1360279499304;;113.158066;;0 / 22;756;2016-11-30 16:01:42:964
5.669;8.581;3.371;5.7204;7.9678;-0.1089;-0.0545;0.6129;3.4731;0.1893;0.0772;-0.1936;95.1724;18.44;-17.56;19.38;142.2;-54.1;-90.95;1.0;50.729;12.845108;77.66332;;3063.1360279499304;;113.158066;;0 / 22;761;2016-11-30 16:01:42:969
3.83;8.734;2.604;5.7204;7.9678;-0.1089;-0.0545;0.6129;3.4731;0.1276;-0.009;-0.2261;95.1724;18.44;-17.56;19.38;142.2;-54.1;-90.95;1.0;50.729;12.845108;77.66332;;3063.1360279499304;;113.158066;;0 / 22;767;2016-11-30 16:01:42:975
3.83;8.734;2.604;5.7204;7.9678;-0.1089;-0.0545;0.6129;3.4731;0.1276;-0.009;-0.2261;95.1724;18.44;-17.56;19.38;142.2;-54.1;-90.95;1.0;50.729;12.845108;77.66332;;3063.1360279499304;;113.158066;;0 / 22;772;2016-11-30 16:01:42:980
3.83;8.734;2.604;5.7204;7.9678;-0.1089;-0.0545;0.6129;3.4731;0.1276;-0.009;-0.2261;30.0;18.44;-17.56;19.38;142.2;-54.1;-90.95;1.0;50.729;12.845108;77.66332;;3063.1360279499304;;113.158066;;0 / 22;777;2016-11-30 16:01:42:985
3.83;8.734;2.604;5.7204;7.9678;-0.1089;-0.0545;0.6129;3.4731;0.1276;-0.009;-0.2261;30.0;18.44;-17.56;19.38;142.2;-54.1;-90.95;1.0;50.729;12.845108;77.66332;;3063.1360279499304;;113.158066;;0 / 22;782;2016-11-30 16:01:42:990
10.419;8.581;1.992;5.6796;7.995;-0.1362;-2.7785;-2.329;3.6502;0.1977;-0.0919;-0.4311;30.0;18.63;-17.12;18.88;142.2;-54.1;-90.95;1.0;50.729;12.845108;77.66332;;3063.1360279499304;;113.158066;;0 / 22;787;2016-11-30 16:01:42:995
10.419;8.581;1.992;5.6796;7.995;-0.1362;-2.7785;-2.329;3.6502;0.1977;-0.0919;-0.4311;30.0;18.63;-17.12;18.88;142.2;-54.1;-90.95;1.0;50.729;12.845108;77.66332;;3063.1360279499304;;113.158066;;0 / 22;792;2016-11-30 16:01:43:000
10.419;8.581;1.992;5.6251;8.0359;-0.1907;0.6538;0.8444;-2.2609;0.2547;-0.1775;-0.3392;30.0;18.63;-17.12;18.75;142.07;-54.6;-91.37;1.0;50.729;12.845108;77.66332;;3063.1360279499304;;113.158066;;0 / 22;796;2016-11-30 16:01:43:004
4.443;9.347;-2.451;5.6251;8.0359;-0.1907;0.6538;0.8444;-2.2609;0.2547;-0.1775;-0.3392;30.0;18.63;-17.12;18.75;142.07;-54.6;-91.37;1.0;50.729;12.845108;77.66332;;3063.1360279499304;;113.158066;;0 / 22;801;2016-11-30 16:01:43:009
4.443;9.347;-2.451;5.6251;8.0359;-0.1907;0.6538;0.8444;-2.2609;0.2536;-0.1961;-0.3185;30.0;18.63;-17.12;18.75;142.07;-54.6;-91.37;1.0;50.729;12.845108;77.66332;;3063.1360279499304;;113.158066;;0 / 22;807;2016-11-30 16:01:43:015
4.443;9.347;-2.451;5.6251;8.0359;-0.1907;0.6538;0.8444;-2.2609;0.2536;-0.1961;-0.3185;30.0;18.63;-17.12;18.75;142.07;-54.6;-91.37;1.0;50.729;12.845108;77.66332;;3063.1360279499304;;113.158066;;0 / 22;811;2016-11-30 16:01:43:019
4.443;9.347;-2.451;5.6251;8.0359;-0.1907;0.6538;0.8444;-2.2609;0.2536;-0.1961;-0.3185;30.0;18.63;-17.12;18.75;142.07;-54.6;-91.37;1.0;50.729;12.845108;77.66332;;3063.1360279499304;;113.158066;;0 / 22;817;2016-11-30 16:01:43:025
4.443;9.347;-2.451;5.6251;8.0359;-0.1907;0.6538;0.8444;-2.2609;0.2536;-0.1961;-0.3185;30.0;18.63;-17.12;18.75;142.07;-54.6;-91.37;1.0;50.729;12.845108;77.66332;;3063.1360279499304;;113.158066;;0 / 22;822;2016-11-30 16:01:43:030
3.218;9.808;-1.071;5.5706;8.0631;-0.2588;-2.6695;1.2803;-1.4165;0.2394;-0.2111;-0.3204;30.0;18.38;-16.69;17.88;142.07;-54.6;-91.37;1.0;50.729;12.845108;77.66332;;3063.1360279499304;;113.158066;;0 / 22;827;2016-11-30 16:01:43:035
3.218;9.808;-1.071;5.5706;8.0631;-0.2588;-2.6695;1.2803;-1.4165;0.2394;-0.2111;-0.3204;30.0;18.38;-16.69;17.88;142.07;-54.6;-91.37;1.0;50.729;12.845108;77.66332;;3063.1360279499304;;113.158066;;0 / 22;832;2016-11-30 16:01:43:040
3.218;9.808;-1.071;5.5706;8.0631;-0.2588;-2.6695;1.2803;-1.4165;0.2394;-0.2111;-0.3204;30.0;18.38;-16.69;17.88;142.07;-54.6;-91.37;1.0;50.729;12.845108;77.66332;;3063.1360279499304;;113.158066;;0 / 22;837;2016-11-30 16:01:43:045
5.822;10.726;-0.306;5.5706;8.0631;-0.2588;-2.6695;1.2803;-1.4165;0.2394;-0.2111;-0.3204;30.0;18.38;-16.69;17.88;142.07;-54.6;-91.37;0.0;50.729;12.845108;77.66332;;3063.1360279499304;;113.158066;;0 / 22;842;2016-11-30 16:01:43:050
5.822;10.726;-0.306;5.5161;8.104;-0.3133;0.2996;2.6287;0.0136;0.0543;-0.1203;-0.2452;30.0;18.5;-17.19;18.06;142.51;-55.33;-92.66;0.0;50.729;12.845108;77.66332;;3063.1360279499304;;113.158066;;0 / 22;847;2016-11-30 16:01:43:055
5.822;10.726;-0.306;5.5161;8.104;-0.3133;0.2996;2.6287;0.0136;0.0543;-0.1203;-0.2452;30.0;18.5;-17.19;18.06;142.51;-55.33;-92.66;0.0;50.729;12.845108;77.66332;;3063.1360279499304;;113.158066;;0 / 22;852;2016-11-30 16:01:43:060
5.822;10.726;-0.306;5.5161;8.104;-0.3133;0.2996;2.6287;0.0136;-0.0469;-0.0554;-0.2179;30.0;18.5;-17.19;18.06;142.51;-55.33;-92.66;0.0;50.729;12.845108;77.66332;;3063.1360279499304;;113.158066;;0 / 22;857;2016-11-30 16:01:43:065
5.822;10.726;-0.306;5.5161;8.104;-0.3133;0.2996;2.6287;0.0136;-0.0469;-0.0554;-0.2179;30.0;18.5;-17.19;18.06;142.51;-55.33;-92.66;0.0;50.729;12.845108;77.66332;;3063.1360279499304;;113.158066;;0 / 22;862;2016-11-30 16:01:43:070
5.822;10.726;-0.306;5.5161;8.104;-0.3133;0.2996;2.6287;0.0136;-0.0469;-0.0554;-0.2179;30.0;18.5;-17.19;18.06;142.51;-55.33;-92.66;0.0;50.729;12.845108;77.66332;;3063.1360279499304;;113.158066;;0 / 22;867;2016-11-30 16:01:43:075
4.137;10.113;2.604;5.448;8.1448;-0.2996;-1.3212;1.9613;2.9011;-0.1208;0.0395;-0.2926;30.0;18.38;-16.56;18.38;142.51;-55.33;-92.66;0.0;50.729;12.845108;77.66332;;3063.1360279499304;;113.158066;;0 / 22;872;2016-11-30 16:01:43:080
4.137;10.113;2.604;5.448;8.1448;-0.2996;-1.3212;1.9613;2.9011;-0.1208;0.0395;-0.2926;30.0;18.38;-16.56;18.38;142.51;-55.33;-92.66;0.0;52.81;12.845108;77.66332;;3063.1360279499304;;113.158066;;0 / 22;880;2016-11-30 16:01:43:088
4.137;10.113;2.604;5.448;8.1448;-0.2996;-1.3212;1.9613;2.9011;-0.1208;0.0395;-0.2926;30.0;18.38;-16.56;18.38;142.51;-55.33;-92.66;0.0;52.81;12.845108;77.66332;;3063.1360279499304;;113.158066;;0 / 22;882;2016-11-30 16:01:43:090
4.137;10.113;2.604;5.448;8.1448;-0.2996;-1.3212;1.9613;2.9011;-0.1208;0.0395;-0.2926;30.0;18.38;-16.56;18.38;141.19;-56.18;-93.15;0.0;52.81;12.845108;77.66332;;3063.1360279499304;;113.158066;;0 / 22;887;2016-11-30 16:01:43:095
6.742;10.419;-2.298;5.448;8.1448;-0.2996;-1.3212;1.9613;2.9011;-0.1208;0.0395;-0.2926;30.0;18.38;-16.56;18.38;141.19;-56.18;-93.15;0.0;52.81;12.845108;77.66332;;3063.1360279499304;;113.158066;;0 / 22;892;2016-11-30 16:01:43:100
6.742;10.419;-2.298;5.448;8.1448;-0.2996;-1.3212;1.9613;2.9011;-0.1208;0.0395;-0.2926;30.0;18.38;-16.56;18.38;141.19;-56.18;-93.15;0.0;52.81;12.845108;77.66332;;3063.1360279499304;;113.158066;;0 / 22;897;2016-11-30 16:01:43:105
6.742;10.419;-2.298;5.4072;8.1721;-0.2724;0.572;2.0975;-1.4029;-0.0911;0.066;-0.2405;30.0;18.38;-16.69;18.75;141.19;-56.18;-93.15;0.0;52.81;12.845108;77.66332;;3063.1360279499304;;113.158066;;0 / 22;902;2016-11-30 16:01:43:110
5.669;10.879;0.306;5.4072;8.1721;-0.2724;0.572;2.0975;-1.4029;-0.1047;0.087;-0.2732;30.0;18.38;-16.69;18.75;141.19;-56.18;-93.15;0.0;52.81;12.845108;77.66332;;3063.1360279499304;;113.158066;;0 / 22;907;2016-11-30 16:01:43:115
5.669;10.879;0.306;5.4072;8.1721;-0.2724;0.572;2.0975;-1.4029;-0.1047;0.087;-0.2732;30.0;18.38;-16.69;18.75;141.19;-56.18;-93.15;0.0;52.81;12.845108;77.66332;;3063.1360279499304;;113.158066;;0 / 22;912;2016-11-30 16:01:43:120
5.669;10.879;0.306;5.4072;8.1721;-0.2724;0.572;2.0975;-1.4029;-0.1047;0.087;-0.2732;30.0;18.38;-16.69;18.75;141.19;-56.18;-93.15;0.0;52.81;12.845108;77.66332;;3063.1360279499304;;113.158066;;0 / 22;917;2016-11-30 16:01:43:125
5.669;10.879;0.306;5.4072;8.1721;-0.2724;0.572;2.0975;-1.4029;-0.1047;0.087;-0.2732;30.0;18.38;-16.69;18.75;141.19;-56.18;-93.15;0.0;52.81;12.845108;77.66332;;3063.1360279499304;;113.158066;;0 / 22;921;2016-11-30 16:01:43:129
5.363;11.645;2.298;5.3527;8.2129;-0.2315;0.4631;1.4437;2.0703;-0.1505;0.1514;-0.3196;30.0;18.31;-16.5;19.19;139.19;-56.48;-92.88;0.0;52.81;12.845108;77.66332;;3063.1360279499304;;113.158066;;0 / 22;926;2016-11-30 16:01:43:134
5.363;11.645;2.298;5.3527;8.2129;-0.2315;0.4631;1.4437;2.0703;-0.1505;0.1514;-0.3196;30.0;18.31;-16.5;19.19;139.19;-56.48;-92.88;0.0;52.81;12.845108;77.66332;;3063.1360279499304;;113.158066;;0 / 22;931;2016-11-30 16:01:43:139
5.363;11.645;2.298;5.3527;8.2129;-0.2315;0.4631;1.4437;2.0703;-0.1505;0.1514;-0.3196;30.0;18.31;-16.5;19.19;139.19;-56.48;-92.88;0.0;52.81;12.845108;77.66332;;3063.1360279499304;;113.158066;;0 / 22;936;2016-11-30 16:01:43:144
5.363;11.645;2.298;5.2982;8.2538;-0.1089;2.9692;1.5527;2.5606;-0.597;0.5683;-0.3422;30.0;17.94;-17.19;19.94;139.19;-56.48;-92.88;0.0;52.81;12.845108;77.66332;;3063.1360279499304;;113.158066;;0 / 22;941;2016-11-30 16:01:43:149
5.056;10.266;7.048;5.2982;8.2538;-0.1089;2.9692;1.5527;2.5606;-0.597;0.5683;-0.3422;30.0;17.94;-17.19;19.94;139.19;-56.48;-92.88;0.0;52.81;12.845108;77.66332;;3063.1360279499304;;113.158066;;0 / 22;946;2016-11-30 16:01:43:154
5.056;10.266;7.048;5.2982;8.2538;-0.1089;2.9692;1.5527;2.5606;-0.597;0.5683;-0.3422;30.0;17.94;-17.19;19.94;139.19;-56.48;-92.88;0.0;52.81;12.845108;77.66332;;3063.1360279499304;;113.158066;;0 / 22;951;2016-11-30 16:01:43:159
5.056;10.266;7.048;5.2982;8.2538;-0.1089;2.9692;1.5527;2.5606;-0.597;0.5683;-0.3422;30.0;17.94;-17.19;19.94;139.19;-56.48;-92.88;0.0;52.81;12.845108;77.66332;;3063.1360279499304;;113.158066;;0 / 22;956;2016-11-30 16:01:43:164
5.056;10.266;7.048;5.2165;8.2947;0.2043;-5.666;-0.3269;15.5814;-1.5981;1.4699;-0.5599;30.0;17.56;-17.31;20.38;139.19;-56.48;-92.88;0.0;52.81;12.845108;77.66332;;3063.1360279499304;;113.158066;;0 / 22;962;2016-11-30 16:01:43:170
1.685;2.758;-12.565;5.2165;8.2947;0.2043;-5.666;-0.3269;15.5814;-1.5981;1.4699;-0.5599;30.0;17.56;-17.31;20.38;139.19;-56.48;-92.88;0.0;52.81;12.845108;77.66332;;3063.1360279499304;;113.158066;;0 / 22;967;2016-11-30 16:01:43:175
1.685;2.758;-12.565;5.2165;8.2947;0.2043;-5.666;-0.3269;15.5814;-1.5981;1.4699;-0.5599;30.0;17.56;-17.31;20.38;139.19;-56.48;-92.88;0.0;52.81;12.845108;77.66332;;3063.1360279499304;;113.158066;;0 / 22;972;2016-11-30 16:01:43:180
1.685;2.758;-12.565;5.2165;8.2947;0.2043;-5.666;-0.3269;15.5814;-1.5981;1.4699;-0.5599;30.0;17.56;-17.31;20.38;139.19;-56.48;-92.88;0.0;52.81;12.845108;77.66332;;3063.1360279499304;;113.158066;;0 / 22;977;2016-11-30 16:01:43:185
1.685;2.758;-12.565;5.1756;8.3219;0.3405;-3.5004;-5.5706;-12.9119;-0.9815;1.0644;-0.5413;30.0;17.31;-17.19;21.0;139.9;-57.81;-87.76;0.0;52.81;12.845108;77.66332;;3063.1360279499304;;113.158066;;0 / 22;982;2016-11-30 16:01:43:190
1.685;2.758;-12.565;5.1756;8.3219;0.3405;-3.5004;-5.5706;-12.9119;-0.9815;1.0644;-0.5413;30.0;17.31;-17.19;21.0;139.9;-57.81;-87.76;0.0;52.81;12.845108;77.66332;;3063.1360279499304;;113.158066;;0 / 22;986;2016-11-30 16:01:43:194
4.597;3.217;-3.677;5.0939;8.3764;0.4767;-0.5039;-2.0975;-0.3269;-0.3485;0.7527;-0.4674;30.0;16.69;-17.37;21.94;139.9;-57.81;-87.76;0.0;52.81;12.845108;77.66332;;3063.1360279499304;;113.158066;;0 / 22;992;2016-11-30 16:01:43:200
4.597;3.217;-3.677;5.0939;8.3764;0.4767;-0.5039;-2.0975;-0.3269;-0.3485;0.7527;-0.4674;30.0;16.69;-17.37;21.94;139.9;-57.81;-87.76;0.0;52.81;12.845108;77.66332;;3063.1360279499304;;113.158066;;0 / 22;996;2016-11-30 16:01:43:204
4.597;3.217;-3.677;5.0939;8.3764;0.4767;-0.5039;-2.0975;-0.3269;-0.3485;0.7527;-0.4674;30.0;16.69;-17.37;21.94;139.9;-57.81;-87.76;0.0;52.81;12.845108;77.66332;;3063.1360279499304;;113.158066;;0 / 22;1002;2016-11-30 16:01:43:210
4.597;3.217;-3.677;5.0939;8.3764;0.4767;-0.5039;-2.0975;-0.3269;-0.3485;0.7527;-0.4674;30.0;16.69;-17.37;21.94;139.9;-57.81;-87.76;0.0;52.81;12.845108;77.66332;;3063.1360279499304;;113.158066;;0 / 22;1007;2016-11-30 16:01:43:215
7.814;14.71;5.056;5.0531;8.39;0.5312;1.5391;6.3197;5.448;-0.2173;0.6469;-0.3414;30.0;16.19;-17.25;22.5;139.9;-57.81;-87.76;0.0;52.81;12.845108;77.66332;;3063.1360279499304;;113.158066;;0 / 22;1012;2016-11-30 16:01:43:220
7.814;14.71;5.056;5.0531;8.39;0.5312;1.5391;6.3197;5.448;-0.2173;0.6469;-0.3414;30.0;16.19;-17.25;22.5;139.9;-57.81;-87.76;0.0;52.81;12.845108;77.66332;;3063.1360279499304;;113.158066;;0 / 22;1017;2016-11-30 16:01:43:225
7.814;14.71;5.056;5.0531;8.39;0.5312;1.5391;6.3197;5.448;-0.2173;0.6469;-0.3414;30.0;16.19;-17.25;22.5;139.9;-57.81;-87.76;0.0;52.81;12.845108;77.66332;;3063.1360279499304;;113.158066;;0 / 22;1022;2016-11-30 16:01:43:230
7.814;14.71;5.056;5.0531;8.39;0.5312;1.5391;6.3197;5.448;-0.2173;0.6469;-0.3414;30.0;16.19;-17.25;22.5;139.9;-57.81;-87.76;0.0;52.81;12.845108;77.66332;;3063.1360279499304;;113.158066;;0 / 22;1027;2016-11-30 16:01:43:235
7.814;14.71;5.056;4.9441;8.4445;0.6946;2.4108;0.286;2.3699;-0.0619;0.8274;-0.3223;30.0;15.38;-16.19;24.13;136.13;-58.8;-84.0;0.0;52.81;12.845108;77.66332;;3063.1360279499304;;113.158066;;0 / 22;1032;2016-11-30 16:01:43:240
7.814;14.71;5.056;4.9441;8.4445;0.6946;2.4108;0.286;2.3699;-0.0619;0.8274;-0.3223;30.0;15.38;-16.19;24.13;136.13;-58.8;-84.0;0.0;52.81;12.845108;77.66332;;3063.1360279499304;;113.158066;;0 / 22;1037;2016-11-30 16:01:43:245
7.814;14.71;5.056;4.9441;8.4445;0.6946;2.4108;0.286;2.3699;-0.0619;0.8274;-0.3223;30.0;15.38;-16.19;24.13;136.13;-58.8;-84.0;0.0;52.81;12.845108;77.66332;;3063.1360279499304;;113.158066;;0 / 22;1041;2016-11-30 16:01:43:249
8.581;3.83;-2.911;4.9441;8.4445;0.6946;2.4108;0.286;2.3699;-0.0619;0.8274;-0.3223;30.0;15.38;-16.19;24.13;136.13;-58.8;-84.0;0.0;52.81;12.845108;77.66332;;3063.1360279499304;;113.158066;;0 / 22;1047;2016-11-30 16:01:43:255
8.581;3.83;-2.911;4.8896;8.4717;0.7763;3.6911;-4.6445;-3.6774;0.0518;1.0147;-0.2457;30.0;14.88;-14.94;24.63;136.13;-58.8;-84.0;0.0;52.81;12.845108;77.66332;;3063.1360279499304;;113.158066;;0 / 22;1054;2016-11-30 16:01:43:262
8.581;3.83;-2.911;4.8896;8.4717;0.7763;3.6911;-4.6445;-3.6774;0.0518;1.0147;-0.2457;30.0;14.88;-14.94;24.63;136.13;-58.8;-84.0;0.0;52.81;12.845108;77.66332;;3063.1360279499304;;113.158066;;0 / 22;1057;2016-11-30 16:01:43:265
8.581;3.83;-2.911;4.8896;8.4717;0.7763;3.6911;-4.6445;-3.6774;0.0518;1.0147;-0.2457;30.0;14.88;-14.94;24.63;136.13;-58.8;-84.0;0.0;52.81;12.845108;77.66332;;3063.1360279499304;;113.158066;;0 / 22;1062;2016-11-30 16:01:43:270
4.597;7.202;-6.435;4.8896;8.4717;0.7763;3.6911;-4.6445;-3.6774;0.0518;1.0147;-0.2457;30.0;14.88;-14.94;24.63;136.13;-58.8;-84.0;0.0;52.81;12.845108;77.66332;;3063.1360279499304;;113.158066;;0 / 22;1067;2016-11-30 16:01:43:275
4.597;7.202;-6.435;4.876;8.4717;0.8444;-0.4358;-0.0408;-8.0495;0.2752;1.048;0.0671;30.0;14.25;-12.69;26.69;132.15;-59.7;-80.98;0.0;52.81;12.845108;77.66332;;3063.1360279499304;;113.158066;;0 / 22;1071;2016-11-30 16:01:43:279
4.597;7.202;-6.435;4.876;8.4717;0.8444;-0.4358;-0.0408;-8.0495;0.2752;1.048;0.0671;30.0;14.25;-12.69;26.69;132.15;-59.7;-80.98;0.0;52.81;12.845108;77.66332;;3063.1360279499304;;113.158066;;0 / 22;1076;2016-11-30 16:01:43:284
4.597;7.202;-6.435;4.876;8.4717;0.8444;-0.4358;-0.0408;-8.0495;0.2752;1.048;0.0671;30.0;14.25;-12.69;26.69;132.15;-59.7;-80.98;0.0;52.81;12.845108;77.66332;;3063.1360279499304;;113.158066;;0 / 22;1082;2016-11-30 16:01:43:290
4.597;7.202;-6.435;4.876;8.4717;0.8444;-0.4358;-0.0408;-8.0495;0.2752;1.048;0.0671;30.0;14.25;-12.69;26.69;132.15;-59.7;-80.98;0.0;52.81;12.845108;77.66332;;3063.1360279499304;;113.158066;;0 / 22;1088;2016-11-30 16:01:43:296
2.911;7.048;-2.911;4.8896;8.4581;0.8036;-3.0509;-1.5663;-4.9305;0.8909;0.9013;0.2525;33.0;14.31;-12.25;27.44;132.15;-59.7;-80.98;0.0;52.81;12.845108;77.66332;;3063.1360279499304;;113.158066;;0 / 22;1096;2016-11-30 16:01:43:304
2.911;7.048;-2.911;4.8896;8.4581;0.8036;-3.0509;-1.5663;-4.9305;0.8909;0.9013;0.2525;33.0;14.31;-12.25;27.44;132.15;-59.7;-80.98;0.0;52.81;12.845108;77.66332;;3063.1360279499304;;113.158066;;0 / 22;1097;2016-11-30 16:01:43:305
2.911;7.048;-2.911;4.8896;8.4581;0.8036;-3.0509;-1.5663;-4.9305;0.8909;0.9013;0.2525;33.0;14.31;-12.25;27.44;132.15;-59.7;-80.98;0.0;52.81;12.845108;77.66332;;3063.1360279499304;;113.158066;;0 / 22;1102;2016-11-30 16:01:43:310
4.29;12.105;-2.758;4.8896;8.4581;0.8036;-3.0509;-1.5663;-4.9305;0.8909;0.9013;0.2525;33.0;14.31;-12.25;27.44;132.15;-59.7;-80.98;0.0;52.81;12.845108;77.66332;;3063.1360279499304;;113.158066;;0 / 22;1108;2016-11-30 16:01:43:316
4.29;12.105;-2.758;4.9032;8.4717;0.6674;-0.1634;4.7126;-2.8057;1.366;0.7772;0.066;33.0;15.19;-11.69;27.94;132.08;-59.64;-80.67;0.0;52.81;12.845108;77.66332;;3063.1360279499304;;113.158066;;0 / 22;1112;2016-11-30 16:01:43:320
4.29;12.105;-2.758;4.9032;8.4717;0.6674;-0.1634;4.7126;-2.8057;1.366;0.7772;0.066;33.0;15.19;-11.69;27.94;132.08;-59.64;-80.67;0.0;52.81;12.845108;77.66332;;3063.1360279499304;;113.158066;;0 / 22;1117;2016-11-30 16:01:43:325
6.282;15.016;0.612;4.9032;8.4717;0.6674;-0.1634;4.7126;-2.8057;1.366;0.7772;0.066;33.0;15.19;-11.69;27.94;132.08;-59.64;-80.67;0.0;52.81;12.845108;77.66332;;3063.1360279499304;;113.158066;;0 / 22;1122;2016-11-30 16:01:43:330
6.282;15.016;0.612;4.9032;8.4717;0.6674;-0.1634;4.7126;-2.8057;1.366;0.7772;0.066;33.0;15.19;-11.69;27.94;132.08;-59.64;-80.67;0.0;52.81;12.845108;77.66332;;3063.1360279499304;;113.158066;;0 / 22;1126;2016-11-30 16:01:43:334
6.282;15.016;0.612;4.9032;8.4853;0.5448;1.3756;6.5377;0.0545;1.2894;0.7197;-0.0526;33.0;16.88;-11.06;28.0;132.08;-59.64;-80.67;0.0;52.81;12.845108;77.66332;;3063.1360279499304;;113.158066;;0 / 22;1131;2016-11-30 16:01:43:339
7.662;15.017;0.613;4.9032;8.4853;0.5448;1.3756;6.5377;0.0545;1.1086;0.6504;-0.1483;33.0;16.88;-11.06;28.0;132.08;-59.64;-80.67;0.0;52.81;12.845108;77.66332;;3063.1360279499304;;113.158066;;0 / 22;1137;2016-11-30 16:01:43:345
7.662;15.017;0.613;4.9032;8.4853;0.5448;1.3756;6.5377;0.0545;1.1086;0.6504;-0.1483;33.0;16.88;-11.06;28.0;132.08;-59.64;-80.67;0.0;52.81;12.845108;77.66332;;3063.1360279499304;;113.158066;;0 / 22;1142;2016-11-30 16:01:43:350
7.662;15.017;0.613;4.9032;8.4853;0.5448;1.3756;6.5377;0.0545;1.1086;0.6504;-0.1483;33.0;16.88;-11.06;28.0;132.08;-59.64;-80.67;0.0;52.81;12.845108;77.66332;;3063.1360279499304;;113.158066;;0 / 22;1147;2016-11-30 16:01:43:355
5.209;9.96;1.685;4.8624;8.499;0.4358;1.2667;3.2961;0.3269;0.9348;0.5699;-0.1658;33.0;17.31;-11.31;27.56;131.31;-59.83;-83.66;0.0;52.81;12.845108;77.66332;;3063.1360279499304;;113.158066;;0 / 22;1152;2016-11-30 16:01:43:360
5.209;9.96;1.685;4.8624;8.499;0.4358;1.2667;3.2961;0.3269;0.9348;0.5699;-0.1658;33.0;17.31;-11.31;27.56;131.31;-59.83;-83.66;0.0;52.81;12.845108;77.66332;;3063.1360279499304;;113.158066;;0 / 22;1157;2016-11-30 16:01:43:365
5.209;9.96;1.685;4.8624;8.499;0.4358;1.2667;3.2961;0.3269;0.9348;0.5699;-0.1658;33.0;17.31;-11.31;27.56;131.31;-59.83;-83.66;0.0;52.81;12.845108;77.66332;;3063.1360279499304;;113.158066;;0 / 22;1162;2016-11-30 16:01:43:370
5.209;9.96;1.685;4.8624;8.499;0.4358;1.2667;3.2961;0.3269;0.9348;0.5699;-0.1658;33.0;17.31;-11.31;27.56;131.31;-59.83;-83.66;0.0;52.81;12.845108;77.66332;;3063.1360279499304;;113.158066;;0 / 22;1168;2016-11-30 16:01:43:376
4.137;7.048;3.371;4.8351;8.5262;0.3405;0.0681;0.2043;1.0351;0.8097;0.4911;-0.2133;33.0;19.69;-11.81;26.5;131.31;-59.83;-83.66;0.0;52.81;12.845108;77.66332;;3063.1360279499304;;113.158066;;0 / 22;1172;2016-11-30 16:01:43:380
4.137;7.048;3.371;4.8351;8.5262;0.3405;0.0681;0.2043;1.0351;0.8097;0.4911;-0.2133;33.0;19.69;-11.81;26.5;131.31;-59.83;-83.66;0.0;52.81;12.845108;77.66332;;3063.1360279499304;;113.158066;;0 / 22;1177;2016-11-30 16:01:43:385
4.137;7.048;3.371;4.8079;8.5398;0.286;-1.2939;-2.2609;4.0043;0.9198;0.2793;-0.186;33.0;20.63;-11.81;25.38;131.31;-59.83;-83.66;0.0;52.81;12.845108;77.66332;;3063.1360279499304;;113.158066;;0 / 22;1182;2016-11-30 16:01:43:390
1.532;4.597;5.976;4.8079;8.5398;0.286;-1.2939;-2.2609;4.0043;0.9198;0.2793;-0.186;33.0;20.63;-11.81;25.38;131.31;-59.83;-83.66;0.0;52.81;12.845108;77.66332;;3063.1360279499304;;113.158066;;0 / 22;1187;2016-11-30 16:01:43:395
1.532;4.597;5.976;4.8079;8.5398;0.286;-1.2939;-2.2609;4.0043;0.9198;0.2793;-0.186;33.0;20.63;-11.81;25.38;131.31;-59.83;-83.66;0.0;52.81;12.845108;77.66332;;3063.1360279499304;;113.158066;;0 / 22;1192;2016-11-30 16:01:43:400
1.532;4.597;5.976;4.8079;8.5398;0.286;-1.2939;-2.2609;4.0043;0.9198;0.2793;-0.186;33.0;20.63;-11.81;25.38;131.31;-59.83;-83.66;0.0;52.81;12.845108;77.66332;;3063.1360279499304;;113.158066;;0 / 22;1196;2016-11-30 16:01:43:404
0.613;5.517;-1.531;4.8079;8.5398;0.286;-1.2939;-2.2609;4.0043;0.9198;0.2793;-0.186;33.0;20.63;-11.81;25.38;131.31;-59.83;-83.66;0.0;52.81;12.845108;77.66332;;3063.1360279499304;;113.158066;;0 / 22;1201;2016-11-30 16:01:43:409
0.613;5.517;-1.531;4.7943;8.5534;0.1226;-4.195;-3.0373;-1.648;0.2566;0.3668;-0.1413;33.0;21.75;-12.12;22.69;140.44;-60.58;-86.6;0.0;52.81;12.845108;77.66332;;3063.1360279499304;;113.158066;;0 / 22;1206;2016-11-30 16:01:43:414
0.613;5.517;-1.531;4.7943;8.5534;0.1226;-4.195;-3.0373;-1.648;0.2566;0.3668;-0.1413;33.0;21.75;-12.12;22.69;140.44;-60.58;-86.6;0.0;52.81;12.845108;77.66332;;3063.1360279499304;;113.158066;;0 / 22;1212;2016-11-30 16:01:43:420
0.613;5.517;-1.531;4.767;8.5671;0.0953;-3.5412;-3.3642;0.5039;0.3382;0.0196;-0.2702;33.0;21.94;-11.94;21.44;140.44;-60.58;-86.6;0.0;52.81;12.845108;77.66332;;3063.1360279499304;;113.158066;;0 / 22;1217;2016-11-30 16:01:43:425
1.225;5.209;0.612;4.767;8.5671;0.0953;-3.5412;-3.3642;0.5039;0.3382;0.0196;-0.2702;33.0;21.94;-11.94;21.44;140.44;-60.58;-86.6;0.0;52.81;12.845108;77.66332;;3063.1360279499304;;113.158066;;0 / 22;1221;2016-11-30 16:01:43:429
1.225;5.209;0.612;4.767;8.5671;0.0953;-3.5412;-3.3642;0.5039;0.3382;0.0196;-0.2702;33.0;21.94;-11.94;21.44;140.44;-60.58;-86.6;0.0;52.81;12.845108;77.66332;;3063.1360279499304;;113.158066;;0 / 22;1226;2016-11-30 16:01:43:434
1.225;5.209;0.612;4.767;8.5671;0.0953;-3.5412;-3.3642;0.5039;0.3382;0.0196;-0.2702;33.0;21.94;-11.94;21.44;140.44;-60.58;-86.6;0.0;52.81;12.845108;77.66332;;3063.1360279499304;;113.158066;;0 / 22;1231;2016-11-30 16:01:43:439
1.225;5.209;0.612;4.767;8.5671;0.0953;-3.5412;-3.3642;0.5039;0.3382;0.0196;-0.2702;33.0;21.94;-11.94;21.44;140.44;-60.58;-86.6;0.0;47.992;12.845108;77.66332;;3063.1360279499304;;113.158066;;0 / 22;1237;2016-11-30 16:01:43:445
1.225;5.209;0.612;4.767;8.5671;0.0953;-3.5412;-3.3642;0.5039;0.3382;0.0196;-0.2702;33.0;21.94;-11.94;21.44;140.44;-60.58;-86.6;0.0;47.992;12.845108;77.66332;;3063.1360279499304;;113.158066;;0 / 22;1242;2016-11-30 16:01:43:450
0.306;7.661;-2.145;4.7126;8.6079;-0.0681;-3.3369;-0.0272;-4.985;0.8233;-0.6114;-0.4006;33.0;22.38;-12.56;21.56;140.26;-60.9;-88.85;0.0;47.992;12.845108;77.66332;;3063.1360279499304;;113.158066;;0 / 22;1247;2016-11-30 16:01:43:455
0.306;7.661;-2.145;4.7126;8.6079;-0.0681;-3.3369;-0.0272;-4.985;0.8233;-0.6114;-0.4006;33.0;22.38;-12.56;21.56;140.26;-60.9;-88.85;0.0;47.992;12.845108;77.66332;;3063.1360279499304;;113.158066;;0 / 22;1252;2016-11-30 16:01:43:460
0.306;7.661;-2.145;4.6308;8.6488;-0.2588;-0.5039;-1.6072;-2.9556;0.7063;-0.8345;-0.5012;33.0;22.63;-12.56;20.69;140.26;-60.9;-88.85;0.0;47.992;12.845108;77.66332;;3063.1360279499304;;113.158066;;0 / 22;1256;2016-11-30 16:01:43:464
3.83;6.435;-2.604;4.6308;8.6488;-0.2588;-0.5039;-1.6072;-2.9556;0.7063;-0.8345;-0.5012;33.0;22.63;-12.56;20.69;140.26;-60.9;-88.85;0.0;47.992;12.845108;77.66332;;3063.1360279499304;;113.158066;;0 / 22;1262;2016-11-30 16:01:43:470
3.83;6.435;-2.604;4.6308;8.6488;-0.2588;-0.5039;-1.6072;-2.9556;0.7063;-0.8345;-0.5012;33.0;22.63;-12.56;20.69;140.26;-60.9;-88.85;0.0;47.992;12.845108;77.66332;;3063.1360279499304;;113.158066;;0 / 22;1267;2016-11-30 16:01:43:475
3.83;6.435;-2.604;4.5764;8.676;-0.3541;-2.438;-2.8602;-0.5584;0.6171;-0.9103;-0.6439;33.0;22.56;-12.94;19.81;140.26;-60.9;-88.85;0.0;47.992;12.845108;77.66332;;3063.1360279499304;;113.158066;;0 / 22;1272;2016-11-30 16:01:43:480
3.83;6.435;-2.604;4.5764;8.676;-0.3541;-2.438;-2.8602;-0.5584;0.6171;-0.9103;-0.6439;33.0;22.56;-12.94;19.81;140.26;-60.9;-88.85;0.0;47.992;12.845108;77.66332;;3063.1360279499304;;113.158066;;0 / 22;1277;2016-11-30 16:01:43:485
1.992;4.597;1.072;4.5764;8.676;-0.3541;-2.438;-2.8602;-0.5584;0.6171;-0.9103;-0.6439;33.0;22.56;-12.94;19.81;140.26;-60.9;-88.85;0.0;47.992;12.845108;77.66332;;3063.1360279499304;;113.158066;;0 / 22;1281;2016-11-30 16:01:43:489
1.992;4.597;1.072;4.5764;8.676;-0.3541;-2.438;-2.8602;-0.5584;0.6171;-0.9103;-0.6439;33.0;22.56;-12.94;19.81;140.26;-60.9;-88.85;0.0;47.992;12.845108;77.66332;;3063.1360279499304;;113.158066;;0 / 22;1286;2016-11-30 16:01:43:494
1.993;1.073;4.598;4.4265;8.7441;-0.4495;-2.2882;-6.6058;3.8136;-0.1936;-0.697;-0.8879;33.0;22.63;-13.37;19.25;140.41;-62.12;-94.42;0.0;47.992;12.845108;77.66332;;3063.1360279499304;;113.158066;;0 / 22;1292;2016-11-30 16:01:43:500
1.993;1.073;4.598;4.4265;8.7441;-0.4495;-2.2882;-6.6058;3.8136;-0.1936;-0.697;-0.8879;33.0;22.63;-13.37;19.25;140.41;-62.12;-94.42;0.0;47.992;12.845108;77.66332;;3063.1360279499304;;113.158066;;0 / 22;1297;2016-11-30 16:01:43:505
1.993;1.073;4.598;4.4265;8.7441;-0.4495;-2.2882;-6.6058;3.8136;-0.1936;-0.697;-0.8879;33.0;22.63;-13.37;19.25;140.41;-62.12;-94.42;0.0;47.992;12.845108;77.66332;;3063.1360279499304;;113.158066;;0 / 22;1302;2016-11-30 16:01:43:510
1.993;1.073;4.598;4.4265;8.7441;-0.4495;-2.2882;-6.6058;3.8136;-0.1936;-0.697;-0.8879;33.0;22.63;-13.37;19.25;140.41;-62.12;-94.42;0.0;47.992;12.845108;77.66332;;3063.1360279499304;;113.158066;;0 / 22;1307;2016-11-30 16:01:43:515
2.298;4.137;4.137;4.304;8.8122;-0.3133;-3.7047;-7.2868;5.6796;-1.3035;-0.4099;-0.6823;33.0;22.44;-13.87;18.38;140.41;-62.12;-94.42;0.0;47.992;12.845108;77.66332;;3063.1360279499304;;113.158066;;0 / 22;1311;2016-11-30 16:01:43:519
2.298;4.137;4.137;4.304;8.8122;-0.3133;-3.7047;-7.2868;5.6796;-1.3035;-0.4099;-0.6823;33.0;22.44;-13.87;18.38;140.41;-62.12;-94.42;0.0;47.992;12.845108;77.66332;;3063.1360279499304;;113.158066;;0 / 22;1316;2016-11-30 16:01:43:524
2.298;4.137;4.137;4.304;8.8122;-0.3133;-3.7047;-7.2868;5.6796;-1.3035;-0.4099;-0.6823;33.0;22.44;-13.87;18.38;140.41;-62.12;-94.42;0.0;47.992;12.845108;77.66332;;3063.1360279499304;;113.158066;;0 / 22;1321;2016-11-30 16:01:43:529
2.298;4.137;4.137;4.304;8.8122;-0.3133;-3.7047;-7.2868;5.6796;-1.3035;-0.4099;-0.6823;33.0;22.44;-13.87;18.38;140.41;-62.12;-94.42;0.0;47.992;12.845108;77.66332;;3063.1360279499304;;113.158066;;0 / 22;1326;2016-11-30 16:01:43:534
5.516;7.048;1.992;4.2086;8.8667;-0.1089;-0.5312;-2.438;2.8602;-1.4852;-0.5083;-0.5454;33.0;22.56;-14.19;18.25;142.51;-63.91;-94.16;0.0;47.992;12.845108;77.66332;;3063.1360279499304;;113.158066;;0 / 22;1332;2016-11-30 16:01:43:540
5.516;7.048;1.992;4.2086;8.8667;-0.1089;-0.5312;-2.438;2.8602;-1.4852;-0.5083;-0.5454;33.0;22.56;-14.19;18.25;142.51;-63.91;-94.16;0.0;47.992;12.845108;77.66332;;3063.1360279499304;;113.158066;;0 / 22;1337;2016-11-30 16:01:43:545
5.516;7.048;1.992;4.2086;8.8667;-0.1089;-0.5312;-2.438;2.8602;-1.4852;-0.5083;-0.5454;33.0;22.56;-14.19;18.25;142.51;-63.91;-94.16;0.0;47.992;12.845108;77.66332;;3063.1360279499304;;113.158066;;0 / 22;1342;2016-11-30 16:01:43:550
5.516;7.048;1.992;4.2086;8.8667;-0.1089;-0.5312;-2.438;2.8602;-1.4852;-0.5083;-0.5454;33.0;22.56;-14.19;18.25;142.51;-63.91;-94.16;0.0;47.992;12.845108;77.66332;;3063.1360279499304;;113.158066;;0 / 22;1347;2016-11-30 16:01:43:555
6.589;11.492;-9.653;4.1678;8.8803;0.1498;1.1986;0.0;0.7627;-1.9466;-0.5359;-0.2004;33.0;22.5;-14.44;16.0;142.51;-63.91;-94.16;0.0;47.992;12.845108;77.66332;;3063.1360279499304;;113.158066;;0 / 22;1351;2016-11-30 16:01:43:559
6.589;11.492;-9.653;4.1678;8.8803;0.1498;1.1986;0.0;0.7627;-1.9466;-0.5359;-0.2004;33.0;22.5;-14.44;16.0;142.51;-63.91;-94.16;0.0;47.992;12.845108;77.66332;;3063.1360279499304;;113.158066;;0 / 22;1356;2016-11-30 16:01:43:564
6.589;11.492;-9.653;4.1678;8.8803;0.1498;1.1986;0.0;0.7627;-1.6283;-0.7175;-0.1126;33.0;22.5;-14.44;16.0;142.51;-63.91;-94.16;0.0;47.992;12.845108;77.66332;;3063.1360279499304;;113.158066;;0 / 22;1361;2016-11-30 16:01:43:569
6.589;11.492;-9.653;4.1541;8.8803;0.2996;3.8136;4.1405;-7.3412;-1.6283;-0.7175;-0.1126;33.0;22.44;-14.69;15.88;150.44;-64.84;-87.94;0.0;47.992;12.845108;77.66332;;3063.1360279499304;;113.158066;;0 / 22;1366;2016-11-30 16:01:43:574
6.282;12.871;-1.225;4.1541;8.8803;0.2996;3.8136;4.1405;-7.3412;-1.6283;-0.7175;-0.1126;33.0;22.44;-14.69;15.88;150.44;-64.84;-87.94;0.0;47.992;12.845108;77.66332;;3063.1360279499304;;113.158066;;0 / 22;1372;2016-11-30 16:01:43:580
6.282;12.871;-1.225;4.1541;8.8803;0.3405;1.362;4.9169;-1.4029;-0.7638;-1.072;-0.0434;33.0;22.81;-15.12;15.5;150.44;-64.84;-87.94;0.0;47.992;12.845108;77.66332;;3063.1360279499304;;113.158066;;0 / 22;1377;2016-11-30 16:01:43:585
6.282;12.871;-1.225;4.1541;8.8803;0.3405;1.362;4.9169;-1.4029;-0.7638;-1.072;-0.0434;33.0;22.81;-15.12;15.5;150.44;-64.84;-87.94;0.0;47.992;12.845108;77.66332;;3063.1360279499304;;113.158066;;0 / 22;1382;2016-11-30 16:01:43:590
6.282;12.871;-1.225;4.1541;8.8803;0.3405;1.362;4.9169;-1.4029;-0.7638;-1.072;-0.0434;33.0;22.81;-15.12;15.5;150.44;-64.84;-87.94;0.0;47.992;12.845108;77.66332;;3063.1360279499304;;113.158066;;0 / 22;1387;2016-11-30 16:01:43:595
6.282;12.871;-1.225;4.1541;8.8803;0.3405;1.362;4.9169;-1.4029;-0.7638;-1.072;-0.0434;33.0;22.81;-15.12;15.5;150.44;-64.84;-87.94;0.0;47.992;12.845108;77.66332;;3063.1360279499304;;113.158066;;0 / 22;1392;2016-11-30 16:01:43:600
3.677;12.718;-3.677;4.1405;8.894;0.2588;1.6753;3.3642;-2.3971;-0.7638;-1.072;-0.0434;36.0;22.88;-15.25;15.44;150.44;-64.84;-87.94;0.0;47.992;12.845108;77.66332;;3063.1360279499304;;113.158066;;0 / 22;1397;2016-11-30 16:01:43:605
3.677;12.718;-3.677;4.1405;8.894;0.2588;1.6753;3.3642;-2.3971;-0.7638;-1.072;-0.0434;36.0;22.88;-15.25;15.44;150.44;-64.84;-87.94;0.0;47.992;12.845108;77.66332;;3063.1360279499304;;113.158066;;0 / 22;1402;2016-11-30 16:01:43:610
3.677;12.718;-3.677;4.1405;8.894;0.2588;1.6753;3.3642;-2.3971;0.3622;-1.8454;-0.0202;36.0;22.88;-15.25;15.44;150.44;-64.84;-87.94;0.0;47.992;12.845108;77.66332;;3063.1360279499304;;113.158066;;0 / 22;1407;2016-11-30 16:01:43:615
8.427;13.331;-0.153;4.1405;8.894;0.2588;1.6753;3.3642;-2.3971;0.3622;-1.8454;-0.0202;36.0;22.88;-15.25;15.44;150.44;-64.84;-87.94;0.0;47.992;12.845108;77.66332;;3063.1360279499304;;113.158066;;0 / 22;1411;2016-11-30 16:01:43:619
8.427;13.331;-0.153;4.1541;8.894;0.0681;3.0509;7.0416;0.0817;0.4164;-1.7952;0.0343;36.0;22.88;-15.44;14.69;154.19;-64.99;-86.42;0.0;47.992;12.845108;77.66332;;3063.1360279499304;;113.158066;;0 / 22;1416;2016-11-30 16:01:43:624
8.427;13.331;-0.153;4.1541;8.894;0.0681;3.0509;7.0416;0.0817;0.4164;-1.7952;0.0343;36.0;22.88;-15.44;14.69;154.19;-64.99;-86.42;0.0;47.992;12.845108;77.66332;;3063.1360279499304;;113.158066;;0 / 22;1421;2016-11-30 16:01:43:629
7.202;19.46;-0.459;4.1541;8.894;0.0681;3.0509;7.0416;0.0817;0.4164;-1.7952;0.0343;36.0;22.88;-15.44;14.69;154.19;-64.99;-86.42;0.0;47.992;12.845108;77.66332;;3063.1360279499304;;113.158066;;0 / 22;1427;2016-11-30 16:01:43:635
7.202;19.46;-0.459;4.1541;8.894;0.0681;3.0509;7.0416;0.0817;0.4164;-1.7952;0.0343;36.0;22.88;-15.44;14.69;154.19;-64.99;-86.42;0.0;47.992;12.845108;77.66332;;3063.1360279499304;;113.158066;;0 / 22;1432;2016-11-30 16:01:43:640
7.202;19.46;-0.459;4.1541;8.894;0.0681;3.0509;7.0416;0.0817;0.4164;-1.7952;0.0343;36.0;22.69;-15.44;14.13;154.19;-64.99;-86.42;0.0;47.992;12.845108;77.66332;;3063.1360279499304;;113.158066;;0 / 22;1437;2016-11-30 16:01:43:645
3.677;12.411;7.048;4.1405;8.894;-0.0681;1.2258;7.3549;1.9068;0.0259;-1.4672;-3.0E-4;36.0;22.69;-15.44;14.13;154.19;-64.99;-86.42;0.0;47.992;12.845108;77.66332;;3063.1360279499304;;113.158066;;0 / 22;1442;2016-11-30 16:01:43:650
3.677;12.411;7.048;4.1405;8.894;-0.0681;1.2258;7.3549;1.9068;0.0259;-1.4672;-3.0E-4;36.0;22.69;-15.44;14.13;154.19;-64.99;-86.42;0.0;47.992;12.845108;77.66332;;3063.1360279499304;;113.158066;;0 / 22;1446;2016-11-30 16:01:43:654
3.677;12.411;7.048;4.1405;8.894;-0.0681;1.2258;7.3549;1.9068;0.0259;-1.4672;-3.0E-4;36.0;22.69;-15.44;14.13;154.19;-64.99;-86.42;0.0;47.992;12.845108;77.66332;;3063.1360279499304;;113.158066;;0 / 22;1452;2016-11-30 16:01:43:660
3.677;12.411;7.048;4.1405;8.894;-0.0681;1.2258;7.3549;1.9068;0.0259;-1.4672;-3.0E-4;36.0;22.69;-15.44;14.13;154.19;-64.99;-86.42;0.0;47.992;12.845108;77.66332;;3063.1360279499304;;113.158066;;0 / 22;1457;2016-11-30 16:01:43:665
5.976;8.274;-5.056;4.1405;8.894;-0.0817;-0.0136;0.2996;6.061;-0.5931;-0.9599;-0.0286;36.0;22.63;-15.87;13.13;153.98;-65.03;-90.94;0.0;47.992;12.845108;77.66332;;3063.1360279499304;;113.158066;;0 / 22;1461;2016-11-30 16:01:43:669
5.976;8.274;-5.056;4.1405;8.894;-0.0817;-0.0136;0.2996;6.061;-0.5931;-0.9599;-0.0286;36.0;22.63;-15.87;13.13;153.98;-65.03;-90.94;0.0;47.992;12.845108;77.66332;;3063.1360279499304;;113.158066;;0 / 22;1466;2016-11-30 16:01:43:674
5.976;8.274;-5.056;4.1405;8.894;-0.0817;-0.0136;0.2996;6.061;-0.6043;-1.0044;0.0409;36.0;22.63;-15.87;13.13;153.98;-65.03;-90.94;0.0;47.992;12.845108;77.66332;;3063.1360279499304;;113.158066;;0 / 22;1471;2016-11-30 16:01:43:679
5.976;8.274;-5.056;4.1541;8.8803;-0.0681;2.438;1.2258;-6.9735;-0.6043;-1.0044;0.0409;36.0;22.31;-16.0;12.75;153.98;-65.03;-90.94;0.0;47.992;12.845108;77.66332;;3063.1360279499304;;113.158066;;0 / 22;1477;2016-11-30 16:01:43:685
5.976;11.186;-5.976;4.1678;8.8803;-0.0681;-0.4903;1.5391;-4.985;-0.519;-1.0308;0.1323;36.0;22.0;-16.0;12.69;153.98;-65.03;-90.94;0.0;47.992;12.845108;77.66332;;3063.1360279499304;;113.158066;;0 / 22;1488;2016-11-30 16:01:43:696
5.976;11.186;-5.976;4.1678;8.8803;-0.0681;-0.4903;1.5391;-4.985;-0.519;-1.0308;0.1323;36.0;22.0;-16.0;12.69;153.98;-65.03;-90.94;0.0;47.992;12.845108;77.66332;;3063.1360279499304;;113.158066;;0 / 22;1489;2016-11-30 16:01:43:697
5.976;11.186;-5.976;4.1678;8.8803;-0.0681;-0.4903;1.5391;-4.985;-0.519;-1.0308;0.1323;36.0;22.0;-16.0;12.69;153.98;-65.03;-90.94;0.0;47.992;12.845108;77.66332;;3063.1360279499304;;113.158066;;0 / 22;1492;2016-11-30 16:01:43:700
5.976;11.186;-5.976;4.1678;8.8803;-0.0681;-0.4903;1.5391;-4.985;-0.519;-1.0308;0.1323;36.0;22.0;-16.0;12.69;153.98;-65.03;-90.94;0.0;47.992;12.845108;77.66332;;3063.1360279499304;;113.158066;;0 / 22;1497;2016-11-30 16:01:43:705
6.282;10.726;0.919;4.1678;8.8803;-0.0681;-0.4903;1.5391;-4.985;-0.519;-1.0308;0.1323;36.0;22.0;-16.0;12.69;153.98;-65.03;-90.94;0.0;47.992;12.845108;77.66332;;3063.1360279499304;;113.158066;;0 / 22;1508;2016-11-30 16:01:43:716
6.282;10.726;0.919;4.1678;8.8803;-0.0681;-0.4903;1.5391;-4.985;-0.519;-1.0308;0.1323;36.0;22.0;-16.0;12.69;153.98;-65.03;-90.94;0.0;47.992;12.845108;77.66332;;3063.1360279499304;;113.158066;;0 / 22;1509;2016-11-30 16:01:43:717
6.282;10.726;0.919;4.1814;8.8803;-0.0681;0.5584;1.5391;-0.9943;-0.4311;-1.0205;0.1453;36.0;21.88;-16.31;12.31;155.03;-64.86;-90.94;0.0;47.992;12.845108;77.66332;;3063.1360279499304;;113.158066;;0 / 22;1512;2016-11-30 16:01:43:720
6.282;10.726;0.919;4.1814;8.8803;-0.0681;0.5584;1.5391;-0.9943;-0.4311;-1.0205;0.1453;36.0;21.88;-16.31;12.31;155.03;-64.86;-90.94;0.0;47.992;12.845108;77.66332;;3063.1360279499304;;113.158066;;0 / 22;1517;2016-11-30 16:01:43:725
5.209;8.734;-2.298;4.1814;8.8803;-0.0681;0.5584;1.5391;-0.9943;-0.4311;-1.0205;0.1453;36.0;21.88;-16.31;12.31;155.03;-64.86;-90.94;0.0;47.992;12.845108;77.66332;;3063.1360279499304;;113.158066;;0 / 22;1522;2016-11-30 16:01:43:730
5.209;8.734;-2.298;4.2359;8.8395;-0.1634;0.3541;-0.2588;-2.438;0.0725;-1.1181;0.225;36.0;21.81;-16.62;12.63;155.03;-64.86;-90.94;0.0;47.992;12.845108;77.66332;;3063.1360279499304;;113.158066;;0 / 22;1527;2016-11-30 16:01:43:735
5.209;8.734;-2.298;4.2359;8.8395;-0.1634;0.3541;-0.2588;-2.438;0.0725;-1.1181;0.225;36.0;21.81;-16.62;12.63;155.03;-64.86;-90.94;0.0;47.992;12.845108;77.66332;;3063.1360279499304;;113.158066;;0 / 22;1532;2016-11-30 16:01:43:740
5.209;8.734;-2.298;4.2359;8.8395;-0.1634;0.3541;-0.2588;-2.438;0.0725;-1.1181;0.225;36.0;21.81;-16.62;12.63;155.03;-64.86;-90.94;0.0;47.992;12.845108;77.66332;;3063.1360279499304;;113.158066;;0 / 22;1537;2016-11-30 16:01:43:745
1.838;7.355;-1.225;4.2359;8.8395;-0.1634;0.3541;-0.2588;-2.438;0.0725;-1.1181;0.225;36.0;21.81;-16.62;12.63;155.03;-64.86;-90.94;0.0;47.992;12.845108;77.66332;;3063.1360279499304;;113.158066;;0 / 22;1542;2016-11-30 16:01:43:750
1.838;7.355;-1.225;4.2359;8.8395;-0.1634;0.3541;-0.2588;-2.438;0.0725;-1.1181;0.225;36.0;21.81;-16.62;12.63;155.03;-64.86;-90.94;0.0;47.992;12.845108;77.66332;;3063.1360279499304;;113.158066;;0 / 22;1547;2016-11-30 16:01:43:755
1.838;7.355;-1.225;4.2631;8.8258;-0.3133;-2.8875;-1.6208;0.1634;0.243;-1.1626;0.1445;36.0;21.81;-16.62;12.88;152.62;-64.38;-92.21;0.0;47.992;12.845108;77.66332;;3063.1360279499304;;113.158066;;0 / 22;1552;2016-11-30 16:01:43:760
1.838;7.355;-1.225;4.2631;8.8258;-0.3133;-2.8875;-1.6208;0.1634;0.243;-1.1626;0.1445;36.0;21.81;-16.62;12.88;152.62;-64.38;-92.21;0.0;47.992;12.845108;77.66332;;3063.1360279499304;;113.158066;;0 / 22;1557;2016-11-30 16:01:43:765
1.838;7.355;-1.225;4.2631;8.8258;-0.3133;-2.8875;-1.6208;0.1634;0.243;-1.1626;0.1445;36.0;21.81;-16.62;12.88;152.62;-64.38;-92.21;0.0;47.992;12.845108;77.66332;;3063.1360279499304;;113.158066;;0 / 22;1561;2016-11-30 16:01:43:769
1.838;7.355;-1.225;4.2631;8.8258;-0.3133;-2.8875;-1.6208;0.1634;0.243;-1.1626;0.1445;36.0;21.81;-16.62;12.88;152.62;-64.38;-92.21;0.0;61.135;12.845108;77.66332;;3063.1360279499304;;113.158066;;0 / 22;1566;2016-11-30 16:01:43:774
3.525;7.203;0.613;4.2631;8.8258;-0.3814;-0.8989;-1.1713;1.2939;0.2493;-1.1306;0.1064;36.0;21.81;-16.87;13.25;152.62;-64.38;-92.21;0.0;61.135;12.845108;77.66332;;3063.1360279499304;;113.158066;;0 / 22;1572;2016-11-30 16:01:43:780
3.525;7.203;0.613;4.2631;8.8258;-0.3814;-0.8989;-1.1713;1.2939;0.2493;-1.1306;0.1064;36.0;21.81;-16.87;13.25;152.62;-64.38;-92.21;0.0;61.135;12.845108;77.66332;;3063.1360279499304;;113.158066;;0 / 22;1577;2016-11-30 16:01:43:785
6.742;3.83;-0.306;4.2631;8.8258;-0.3814;-0.8989;-1.1713;1.2939;0.2493;-1.1306;0.1064;36.0;21.81;-16.87;13.25;152.62;-64.38;-92.21;0.0;61.135;12.845108;77.66332;;3063.1360279499304;;113.158066;;0 / 22;1581;2016-11-30 16:01:43:789
6.742;3.83;-0.306;4.2903;8.8122;-0.5584;2.6014;-4.3721;0.4086;0.1061;-0.9978;0.1936;36.0;21.88;-17.06;13.06;150.26;-64.13;-95.11;0.0;61.135;12.845108;77.66332;;3063.1360279499304;;113.158066;;0 / 22;1587;2016-11-30 16:01:43:795
6.742;3.83;-0.306;4.2903;8.8122;-0.5584;2.6014;-4.3721;0.4086;0.1061;-0.9978;0.1936;36.0;21.88;-17.06;13.06;150.26;-64.13;-95.11;0.0;61.135;12.845108;77.66332;;3063.1360279499304;;113.158066;;0 / 22;1592;2016-11-30 16:01:43:800
6.742;3.83;-0.306;4.2903;8.8122;-0.5584;2.6014;-4.3721;0.4086;-0.189;-0.787;0.471;36.0;21.88;-17.06;13.06;150.26;-64.13;-95.11;0.0;61.135;12.845108;77.66332;;3063.1360279499304;;113.158066;;0 / 22;1596;2016-11-30 16:01:43:804
6.742;-1.992;-4.137;4.2903;8.8122;-0.5584;2.6014;-4.3721;0.4086;-0.189;-0.787;0.471;36.0;21.88;-17.06;13.06;150.26;-64.13;-95.11;0.0;61.135;12.845108;77.66332;;3063.1360279499304;;113.158066;;0 / 22;1601;2016-11-30 16:01:43:809
6.742;-1.992;-4.137;4.2903;8.8122;-0.5584;2.6014;-4.3721;0.4086;-0.189;-0.787;0.471;36.0;21.88;-17.06;13.06;150.26;-64.13;-95.11;0.0;61.135;12.845108;77.66332;;3063.1360279499304;;113.158066;;0 / 22;1606;2016-11-30 16:01:43:814
6.742;-1.992;-4.137;4.4402;8.7169;-0.6401;-0.4631;-10.3922;-2.4244;-0.0218;-0.9509;1.0033;36.0;21.69;-17.44;12.06;150.26;-64.13;-95.11;0.0;61.135;12.845108;77.66332;;3063.1360279499304;;113.158066;;0 / 22;1611;2016-11-30 16:01:43:819
6.742;-1.992;-4.137;4.4402;8.7169;-0.6401;-0.4631;-10.3922;-2.4244;-0.0218;-0.9509;1.0033;36.0;21.69;-17.44;12.06;150.26;-64.13;-95.11;0.0;61.135;12.845108;77.66332;;3063.1360279499304;;113.158066;;0 / 22;1616;2016-11-30 16:01:43:824
2.298;1.532;-0.919;4.4402;8.7169;-0.6401;-0.4631;-10.3922;-2.4244;-0.0218;-0.9509;1.0033;36.0;21.69;-17.44;12.06;150.26;-64.13;-95.11;0.0;61.135;12.845108;77.66332;;3063.1360279499304;;113.158066;;0 / 22;1621;2016-11-30 16:01:43:829
2.298;1.532;-0.919;4.6172;8.6215;-0.6946;-2.0158;-5.7204;0.9943;-0.1658;-0.8064;1.1437;36.0;21.5;-17.69;11.44;151.84;-62.77;-98.2;0.0;61.135;12.845108;77.66332;;3063.1360279499304;;113.158066;;0 / 22;1627;2016-11-30 16:01:43:835
2.298;1.532;-0.919;4.6172;8.6215;-0.6946;-2.0158;-5.7204;0.9943;-0.1658;-0.8064;1.1437;36.0;21.5;-17.69;11.44;151.84;-62.77;-98.2;0.0;61.135;12.845108;77.66332;;3063.1360279499304;;113.158066;;0 / 22;1632;2016-11-30 16:01:43:840
3.83;3.83;1.532;4.6172;8.6215;-0.6946;-2.0158;-5.7204;0.9943;-0.1658;-0.8064;1.1437;36.0;21.5;-17.69;11.44;151.84;-62.77;-98.2;0.0;61.135;12.845108;77.66332;;3063.1360279499304;;113.158066;;0 / 22;1637;2016-11-30 16:01:43:845
3.83;3.83;1.532;4.6989;8.5807;-0.7082;1.7298;-3.6774;2.8466;-0.2026;-0.67;1.027;36.0;21.81;-17.75;11.06;151.84;-62.77;-98.2;0.0;61.135;12.845108;77.66332;;3063.1360279499304;;113.158066;;0 / 22;1642;2016-11-30 16:01:43:850
3.83;3.83;1.532;4.6989;8.5807;-0.7082;1.7298;-3.6774;2.8466;-0.2026;-0.67;1.027;36.0;21.81;-17.75;11.06;151.84;-62.77;-98.2;0.0;61.135;12.845108;77.66332;;3063.1360279499304;;113.158066;;0 / 22;1647;2016-11-30 16:01:43:855
6.129;3.064;0.612;4.6989;8.5807;-0.7082;1.7298;-3.6774;2.8466;-0.2026;-0.67;1.027;36.0;21.81;-17.75;11.06;151.84;-62.77;-98.2;0.0;61.135;12.845108;77.66332;;3063.1360279499304;;113.158066;;0 / 22;1652;2016-11-30 16:01:43:860
6.129;3.064;0.612;4.7943;8.5262;-0.7219;1.3348;-5.4617;1.3212;-0.2408;-0.6409;1.156;36.0;21.75;-18.12;10.44;151.84;-62.77;-98.2;0.0;61.135;12.845108;77.66332;;3063.1360279499304;;113.158066;;0 / 22;1657;2016-11-30 16:01:43:865
6.129;3.064;0.612;4.7943;8.5262;-0.7219;1.3348;-5.4617;1.3212;-0.2408;-0.6409;1.156;36.0;21.75;-18.12;10.44;151.84;-62.77;-98.2;0.0;61.135;12.845108;77.66332;;3063.1360279499304;;113.158066;;0 / 22;1661;2016-11-30 16:01:43:869
6.129;3.064;0.612;4.7943;8.5262;-0.7219;1.3348;-5.4617;1.3212;-0.2408;-0.6409;1.156;36.0;21.75;-18.12;10.44;151.84;-62.77;-98.2;0.0;61.135;12.845108;77.66332;;3063.1360279499304;;113.158066;;0 / 22;1666;2016-11-30 16:01:43:874
6.742;4.75;9.653;4.7943;8.5262;-0.7219;1.3348;-5.4617;1.3212;-0.2452;-0.5498;1.5915;36.0;21.75;-18.12;10.44;151.84;-62.77;-98.2;0.0;61.135;12.845108;77.66332;;3063.1360279499304;;113.158066;;0 / 22;1672;2016-11-30 16:01:43:880
6.742;4.75;9.653;4.7943;8.5262;-0.7219;1.3348;-5.4617;1.3212;-0.2452;-0.5498;1.5915;36.0;21.75;-18.12;10.44;151.84;-62.77;-98.2;0.0;61.135;12.845108;77.66332;;3063.1360279499304;;113.158066;;0 / 22;1677;2016-11-30 16:01:43:885
6.742;4.75;9.653;5.1756;8.2947;-0.7627;1.5663;-1.2531;7.3549;-0.1792;-0.5299;1.6158;36.0;23.13;-18.44;10.5;152.3;-60.38;-98.56;0.0;61.135;12.845108;77.66332;;3063.1360279499304;;113.158066;;0 / 22;1681;2016-11-30 16:01:43:889
6.742;4.75;9.653;5.1756;8.2947;-0.7627;1.5663;-1.2531;7.3549;-0.1792;-0.5299;1.6158;36.0;23.13;-18.44;10.5;152.3;-60.38;-98.56;0.0;61.135;12.845108;77.66332;;3063.1360279499304;;113.158066;;0 / 22;1686;2016-11-30 16:01:43:894
1.685;15.629;-6.589;5.1756;8.2947;-0.7627;1.5663;-1.2531;7.3549;-0.1792;-0.5299;1.6158;36.0;23.13;-18.44;10.5;152.3;-60.38;-98.56;0.0;61.135;12.845108;77.66332;;3063.1360279499304;;113.158066;;0 / 22;1692;2016-11-30 16:01:43:900
1.685;15.629;-6.589;5.3799;8.1585;-0.79;-0.0136;2.5742;-3.5004;-0.2062;-0.6139;1.366;36.0;24.06;-18.5;8.69;152.3;-60.38;-98.56;0.0;61.135;12.845108;77.66332;;3063.1360279499304;;113.158066;;0 / 22;1697;2016-11-30 16:01:43:905
1.685;15.629;-6.589;5.3799;8.1585;-0.79;-0.0136;2.5742;-3.5004;-0.2062;-0.6139;1.366;36.0;24.06;-18.5;8.69;152.3;-60.38;-98.56;0.0;61.135;12.845108;77.66332;;3063.1360279499304;;113.158066;;0 / 22;1702;2016-11-30 16:01:43:910
1.685;15.629;-6.589;5.3799;8.1585;-0.79;-0.0136;2.5742;-3.5004;-0.2782;-0.6474;1.1977;21.6667;24.06;-18.5;8.69;152.3;-60.38;-98.56;0.0;61.135;12.845108;77.66332;;3063.1360279499304;;113.158066;;0 / 22;1707;2016-11-30 16:01:43:915
1.685;15.629;-6.589;5.3799;8.1585;-0.79;-0.0136;2.5742;-3.5004;-0.2782;-0.6474;1.1977;21.6667;24.06;-18.5;8.69;152.3;-60.38;-98.56;0.0;61.135;12.845108;77.66332;;3063.1360279499304;;113.158066;;0 / 22;1711;2016-11-30 16:01:43:919
1.532;10.573;-0.153;5.3799;8.1585;-0.79;-0.0136;2.5742;-3.5004;-0.2782;-0.6474;1.1977;21.6667;24.06;-18.5;8.69;152.3;-60.38;-98.56;0.0;61.135;12.845108;77.66332;;3063.1360279499304;;113.158066;;0 / 22;1716;2016-11-30 16:01:43:924
1.532;10.573;-0.153;5.5434;8.0495;-0.8036;-2.9419;2.2201;-0.2588;-0.4134;-0.679;1.0363;21.6667;24.38;-18.69;7.31;160.53;-56.32;-98.35;0.0;61.135;12.845108;77.66332;;3063.1360279499304;;113.158066;;0 / 22;1722;2016-11-30 16:01:43:930
1.532;10.573;-0.153;5.5434;8.0495;-0.8036;-2.9419;2.2201;-0.2588;-0.4134;-0.679;1.0363;21.6667;24.38;-18.69;7.31;160.53;-56.32;-98.35;0.0;61.135;12.845108;77.66332;;3063.1360279499304;;113.158066;;0 / 22;1727;2016-11-30 16:01:43:935
3.371;10.266;5.209;5.5434;8.0495;-0.8036;-2.9419;2.2201;-0.2588;-0.4134;-0.679;1.0363;21.6667;24.38;-18.69;7.31;160.53;-56.32;-98.35;0.0;61.135;12.845108;77.66332;;3063.1360279499304;;113.158066;;0 / 22;1732;2016-11-30 16:01:43:940
3.371;10.266;5.209;5.6251;7.995;-0.7627;-2.2609;2.2746;5.9656;-0.8958;-0.5926;0.4868;21.6667;25.63;-19.31;4.88;160.53;-56.32;-98.35;0.0;61.135;12.845108;77.66332;;3063.1360279499304;;113.158066;;0 / 22;1737;2016-11-30 16:01:43:945
3.371;10.266;5.209;5.6251;7.995;-0.7627;-2.2609;2.2746;5.9656;-0.8958;-0.5926;0.4868;21.6667;25.63;-19.31;4.88;160.53;-56.32;-98.35;0.0;61.135;12.845108;77.66332;;3063.1360279499304;;113.158066;;0 / 22;1741;2016-11-30 16:01:43:949
3.371;10.266;5.209;5.6251;7.995;-0.7627;-2.2609;2.2746;5.9656;-0.8958;-0.5926;0.4868;21.6667;25.63;-19.31;4.88;160.53;-56.32;-98.35;0.0;61.135;12.845108;77.66332;;3063.1360279499304;;113.158066;;0 / 22;1746;2016-11-30 16:01:43:954
3.371;10.266;5.209;5.6251;7.995;-0.7627;-2.2609;2.2746;5.9656;-1.2921;-0.5211;-0.1508;21.6667;25.63;-19.31;4.88;160.53;-56.32;-98.35;0.0;61.135;12.845108;77.66332;;3063.1360279499304;;113.158066;;0 / 22;1751;2016-11-30 16:01:43:959
0.766;8.581;-0.612;5.5979;8.0359;-0.6401;-4.9986;-2.2201;-2.8738;-1.2921;-0.5211;-0.1508;21.6667;26.25;-18.94;3.69;166.71;-54.62;-97.72;0.0;61.135;12.845108;77.66332;;3063.1360279499304;;113.158066;;0 / 22;1757;2016-11-30 16:01:43:965
0.766;8.581;-0.612;5.5979;8.0359;-0.6401;-4.9986;-2.2201;-2.8738;-1.2921;-0.5211;-0.1508;21.6667;26.25;-18.94;3.69;166.71;-54.62;-97.72;0.0;61.135;12.845108;77.66332;;3063.1360279499304;;113.158066;;0 / 22;1762;2016-11-30 16:01:43:970
0.766;8.581;-0.612;5.5979;8.0359;-0.6401;-4.9986;-2.2201;-2.8738;-1.2921;-0.5211;-0.1508;21.6667;26.25;-18.94;3.69;166.71;-54.62;-97.72;0.0;61.135;12.845108;77.66332;;3063.1360279499304;;113.158066;;0 / 22;1767;2016-11-30 16:01:43:975
8.887;19.46;0.306;5.5706;8.0495;-0.5857;-0.9806;4.5219;2.1111;-1.4353;-0.9247;-0.1467;21.6667;26.63;-18.62;1.81;166.71;-54.62;-97.72;0.0;61.135;12.845108;77.66332;;3063.1360279499304;;113.158066;;0 / 22;1771;2016-11-30 16:01:43:979
8.887;19.46;0.306;5.5706;8.0495;-0.5857;-0.9806;4.5219;2.1111;-1.4353;-0.9247;-0.1467;21.6667;26.63;-18.62;1.81;166.71;-54.62;-97.72;0.0;61.135;12.845108;77.66332;;3063.1360279499304;;113.158066;;0 / 22;1776;2016-11-30 16:01:43:984
8.887;19.46;0.306;5.5706;8.0495;-0.5857;-0.9806;4.5219;2.1111;-1.4353;-0.9247;-0.1467;21.6667;26.63;-18.62;1.81;166.71;-54.62;-97.72;0.0;61.135;12.845108;77.66332;;3063.1360279499304;;113.158066;;0 / 22;1781;2016-11-30 16:01:43:989
8.887;19.46;0.306;5.5298;8.0904;-0.4495;3.6638;9.5341;2.2882;-1.5492;-0.9776;-0.2831;21.6667;26.81;-17.87;0.19;166.71;-54.62;-97.72;0.0;61.135;12.845108;77.66332;;3063.1360279499304;;113.158066;;0 / 22;1787;2016-11-30 16:01:43:995
8.274;18.234;-6.129;5.5298;8.0904;-0.4495;3.6638;9.5341;2.2882;-1.5492;-0.9776;-0.2831;21.6667;26.81;-17.87;0.19;166.71;-54.62;-97.72;0.0;61.135;12.845108;77.66332;;3063.1360279499304;;113.158066;;0 / 22;1792;2016-11-30 16:01:44:000
8.274;18.234;-6.129;5.5298;8.0904;-0.4495;3.6638;9.5341;2.2882;-1.261;-1.2883;-0.4669;21.6667;26.81;-17.87;0.19;166.71;-54.62;-97.72;0.0;61.135;12.845108;77.66332;;3063.1360279499304;;113.158066;;0 / 22;1797;2016-11-30 16:01:44:005
8.274;18.234;-6.129;5.5298;8.0904;-0.4495;3.6638;9.5341;2.2882;-1.261;-1.2883;-0.4669;21.6667;26.81;-17.87;0.19;166.71;-54.62;-97.72;0.0;61.135;12.845108;77.66332;;3063.1360279499304;;113.158066;;0 / 22;1802;2016-11-30 16:01:44:010
8.274;18.234;-6.129;5.5298;8.0904;-0.4495;3.6638;9.5341;2.2882;-1.261;-1.2883;-0.4669;21.6667;26.81;-17.87;0.19;166.71;-54.62;-97.72;0.0;61.135;12.845108;77.66332;;3063.1360279499304;;113.158066;;0 / 22;1807;2016-11-30 16:01:44:015
5.056;11.952;2.145;5.3799;8.1993;-0.3405;0.8989;6.2108;3.5549;-1.4789;-1.2422;-0.7747;21.6667;28.31;-16.44;-2.62;181.28;-55.56;-94.65;0.0;61.135;12.845108;77.66332;;3063.1360279499304;;113.158066;;0 / 22;1811;2016-11-30 16:01:44:019
5.056;11.952;2.145;5.3799;8.1993;-0.3405;0.8989;6.2108;3.5549;-1.4789;-1.2422;-0.7747;21.6667;28.31;-16.44;-2.62;181.28;-55.56;-94.65;0.0;61.135;12.845108;77.66332;;3063.1360279499304;;113.158066;;0 / 22;1816;2016-11-30 16:01:44:024
5.056;11.952;2.145;5.3799;8.1993;-0.3405;0.8989;6.2108;3.5549;-1.4789;-1.2422;-0.7747;21.6667;28.31;-16.44;-2.62;181.28;-55.56;-94.65;0.0;61.135;12.845108;77.66332;;3063.1360279499304;;113.158066;;0 / 22;1821;2016-11-30 16:01:44:029
5.056;11.952;2.145;5.1756;8.3219;-0.2315;-2.1111;1.3348;0.2315;-1.5888;-1.3213;-1.3851;21.6667;28.56;-15.87;-4.0;181.28;-55.56;-94.65;0.0;61.135;12.845108;77.66332;;3063.1360279499304;;113.158066;;0 / 22;1826;2016-11-30 16:01:44:034
5.056;11.952;2.145;5.1756;8.3219;-0.2315;-2.1111;1.3348;0.2315;-1.5888;-1.3213;-1.3851;21.6667;28.56;-15.87;-4.0;181.28;-55.56;-94.65;0.0;61.135;12.845108;77.66332;;3063.1360279499304;;113.158066;;0 / 22;1832;2016-11-30 16:01:44:040
2.758;9.347;0.766;5.1756;8.3219;-0.2315;-2.1111;1.3348;0.2315;-1.6717;-1.3147;-1.5372;21.6667;28.56;-15.87;-4.0;181.28;-55.56;-94.65;0.0;61.135;12.845108;77.66332;;3063.1360279499304;;113.158066;;0 / 22;1837;2016-11-30 16:01:44:045
2.758;9.347;0.766;5.1756;8.3219;-0.2315;-2.1111;1.3348;0.2315;-1.6717;-1.3147;-1.5372;21.6667;28.56;-15.87;-4.0;181.28;-55.56;-94.65;0.0;61.135;12.845108;77.66332;;3063.1360279499304;;113.158066;;0 / 22;1842;2016-11-30 16:01:44:050
2.758;9.347;0.766;4.9305;8.4717;-0.0953;-4.3312;-0.6538;0.8581;-1.6851;-1.3903;-1.5552;21.6667;29.63;-14.87;-5.31;186.21;-58.1;-92.56;0.0;61.135;12.845108;77.66332;;3063.1360279499304;;113.158066;;0 / 22;1846;2016-11-30 16:01:44:054
-0.306;7.202;1.685;4.9305;8.4717;-0.0953;-4.3312;-0.6538;0.8581;-1.6851;-1.3903;-1.5552;21.6667;29.63;-14.87;-5.31;186.21;-58.1;-92.56;0.0;61.135;12.845108;77.66332;;3063.1360279499304;;113.158066;;0 / 22;1851;2016-11-30 16:01:44:059
-0.306;7.202;1.685;4.9305;8.4717;-0.0953;-4.3312;-0.6538;0.8581;-1.6851;-1.3903;-1.5552;21.6667;29.63;-14.87;-5.31;186.21;-58.1;-92.56;0.0;61.135;12.845108;77.66332;;3063.1360279499304;;113.158066;;0 / 22;1856;2016-11-30 16:01:44:064
-0.306;7.202;1.685;4.8079;8.5534;-0.0408;-4.9577;1.5527;1.1032;-1.6316;-1.4846;-1.5602;21.6667;29.94;-14.5;-5.87;186.21;-58.1;-92.56;0.0;61.135;12.845108;77.66332;;3063.1360279499304;;113.158066;;0 / 22;1862;2016-11-30 16:01:44:070
-0.306;7.202;1.685;4.8079;8.5534;-0.0408;-4.9577;1.5527;1.1032;-1.6316;-1.4846;-1.5602;21.6667;29.94;-14.5;-5.87;186.21;-58.1;-92.56;0.0;61.135;12.845108;77.66332;;3063.1360279499304;;113.158066;;0 / 22;1867;2016-11-30 16:01:44:075
1.686;13.025;2.146;4.8079;8.5534;-0.0408;-4.9577;1.5527;1.1032;-1.6316;-1.4846;-1.5602;21.6667;29.94;-14.5;-5.87;186.21;-58.1;-92.56;0.0;61.135;12.845108;77.66332;;3063.1360279499304;;113.158066;;0 / 22;1872;2016-11-30 16:01:44:080
1.686;13.025;2.146;4.8079;8.5534;-0.0408;-4.9577;1.5527;1.1032;-1.6316;-1.4846;-1.5602;21.6667;29.94;-14.5;-5.87;186.21;-58.1;-92.56;0.0;61.135;12.845108;77.66332;;3063.1360279499304;;113.158066;;0 / 22;1876;2016-11-30 16:01:44:084
1.686;13.025;2.146;4.5219;8.7033;0.0681;-2.2337;5.5434;1.6072;-1.4969;-1.6444;-1.967;21.6667;30.69;-14.31;-6.94;186.21;-58.1;-92.56;0.0;57.312;12.845108;77.66332;;3063.1360279499304;;113.158066;;0 / 22;1881;2016-11-30 16:01:44:089
1.686;13.025;2.146;4.5219;8.7033;0.0681;-2.2337;5.5434;1.6072;-1.4969;-1.6444;-1.967;21.6667;30.69;-14.31;-6.94;186.21;-58.1;-92.56;0.0;57.312;12.845108;77.66332;;3063.1360279499304;;113.158066;;0 / 22;1886;2016-11-30 16:01:44:094
6.282;13.484;-3.217;4.5219;8.7033;0.0681;-2.2337;5.5434;1.6072;-1.4969;-1.6444;-1.967;21.6667;30.69;-14.31;-6.94;186.21;-58.1;-92.56;0.0;57.312;12.845108;77.66332;;3063.1360279499304;;113.158066;;0 / 22;1891;2016-11-30 16:01:44:099
6.282;13.484;-3.217;4.2222;8.8531;0.1362;2.0566;4.6308;-3.3505;-1.1364;-1.8969;-1.6387;21.6667;31.94;-13.31;-7.87;193.9;-62.54;-89.14;0.0;57.312;12.845108;77.66332;;3063.1360279499304;;113.158066;;0 / 22;1897;2016-11-30 16:01:44:105
6.282;13.484;-3.217;4.2222;8.8531;0.1362;2.0566;4.6308;-3.3505;-1.1364;-1.8969;-1.6387;21.6667;31.94;-13.31;-7.87;193.9;-62.54;-89.14;0.0;57.312;12.845108;77.66332;;3063.1360279499304;;113.158066;;0 / 22;1902;2016-11-30 16:01:44:110
6.282;13.484;-3.217;4.2222;8.8531;0.1362;2.0566;4.6308;-3.3505;-1.1364;-1.8969;-1.6387;21.6667;31.94;-13.31;-7.87;193.9;-62.54;-89.14;0.0;57.312;12.845108;77.66332;;3063.1360279499304;;113.158066;;0 / 22;1906;2016-11-30 16:01:44:114
6.282;13.484;-3.217;4.086;8.9212;0.1226;-2.2473;3.6502;0.3269;-0.9517;-2.1094;-1.6597;21.6667;32.69;-12.87;-8.44;193.9;-62.54;-89.14;0.0;57.312;12.845108;77.66332;;3063.1360279499304;;113.158066;;0 / 22;1912;2016-11-30 16:01:44:120
6.282;13.484;-3.217;4.086;8.9212;0.1226;-2.2473;3.6502;0.3269;-0.9517;-2.1094;-1.6597;21.6667;32.69;-12.87;-8.44;193.9;-62.54;-89.14;0.0;57.312;12.845108;77.66332;;3063.1360279499304;;113.158066;;0 / 22;1917;2016-11-30 16:01:44:125
1.072;13.791;0.766;4.086;8.9212;0.1226;-2.2473;3.6502;0.3269;-0.9517;-2.1094;-1.6597;21.6667;32.69;-12.87;-8.44;193.9;-62.54;-89.14;0.0;57.312;12.845108;77.66332;;3063.1360279499304;;113.158066;;0 / 22;1922;2016-11-30 16:01:44:130
1.072;13.791;0.766;4.086;8.9212;0.1226;-2.2473;3.6502;0.3269;-0.9517;-2.1094;-1.6597;21.6667;32.69;-12.87;-8.44;193.9;-62.54;-89.14;0.0;57.312;12.845108;77.66332;;3063.1360279499304;;113.158066;;0 / 22;1927;2016-11-30 16:01:44:135
1.072;13.791;0.766;3.8273;9.0302;0.1226;-2.4516;4.4538;0.79;-0.9269;-2.0273;-1.4399;21.6667;33.38;-12.37;-8.25;194.49;-65.38;-88.28;0.0;57.312;12.845108;77.66332;;3063.1360279499304;;113.158066;;0 / 22;1932;2016-11-30 16:01:44:140
1.072;13.791;0.766;3.8273;9.0302;0.1226;-2.4516;4.4538;0.79;-0.9269;-2.0273;-1.4399;21.6667;33.38;-12.37;-8.25;194.49;-65.38;-88.28;0.0;57.312;12.845108;77.66332;;3063.1360279499304;;113.158066;;0 / 22;1937;2016-11-30 16:01:44:145
1.072;13.791;0.766;3.8273;9.0302;0.1226;-2.4516;4.4538;0.79;-0.9269;-2.0273;-1.4399;21.6667;33.38;-12.37;-8.25;194.49;-65.38;-88.28;0.0;57.312;12.845108;77.66332;;3063.1360279499304;;113.158066;;0 / 22;1941;2016-11-30 16:01:44:149
-0.459;11.186;0.766;3.5957;9.1255;0.1634;-4.0452;2.0566;1.9749;-0.9733;-1.7802;-1.4123;21.6667;33.75;-11.06;-8.44;194.49;-65.38;-88.28;0.0;57.312;12.845108;77.66332;;3063.1360279499304;;113.158066;;0 / 22;1946;2016-11-30 16:01:44:154
-0.459;11.186;0.766;3.5957;9.1255;0.1634;-4.0452;2.0566;1.9749;-0.9733;-1.7802;-1.4123;21.6667;33.75;-11.06;-8.44;194.49;-65.38;-88.28;0.0;57.312;12.845108;77.66332;;3063.1360279499304;;113.158066;;0 / 22;1951;2016-11-30 16:01:44:159
-0.459;11.186;0.766;3.5957;9.1255;0.1634;-4.0452;2.0566;1.9749;-0.9496;-1.7085;-1.3578;21.6667;33.75;-11.06;-8.44;194.49;-65.38;-88.28;0.0;57.312;12.845108;77.66332;;3063.1360279499304;;113.158066;;0 / 22;1957;2016-11-30 16:01:44:165
-0.459;11.186;0.766;3.5957;9.1255;0.1634;-4.0452;2.0566;1.9749;-0.9496;-1.7085;-1.3578;21.6667;33.75;-11.06;-8.44;194.49;-65.38;-88.28;0.0;57.312;12.845108;77.66332;;3063.1360279499304;;113.158066;;0 / 22;1962;2016-11-30 16:01:44:170
-0.459;12.105;1.532;3.3642;9.2208;0.2043;-4.2767;2.4244;1.3212;-0.9496;-1.7085;-1.3578;21.6667;33.94;-10.62;-8.81;194.49;-65.38;-88.28;0.0;57.312;12.845108;77.66332;;3063.1360279499304;;113.158066;;0 / 22;1967;2016-11-30 16:01:44:175
-0.459;12.105;1.532;3.3642;9.2208;0.2043;-4.2767;2.4244;1.3212;-0.9496;-1.7085;-1.3578;21.6667;33.94;-10.62;-8.81;194.49;-65.38;-88.28;0.0;57.312;12.845108;77.66332;;3063.1360279499304;;113.158066;;0 / 22;1972;2016-11-30 16:01:44:180
-0.459;12.105;1.532;3.3642;9.2208;0.2043;-4.2767;2.4244;1.3212;-0.9496;-1.7085;-1.3578;21.6667;33.94;-10.62;-8.81;194.49;-65.38;-88.28;0.0;57.312;12.845108;77.66332;;3063.1360279499304;;113.158066;;0 / 22;1976;2016-11-30 16:01:44:184
-0.459;12.105;1.532;3.2552;9.2481;0.2315;-3.2552;3.3233;0.8308;-0.829;-1.6316;-1.2684;21.6667;33.75;-10.0;-9.06;197.61;-69.92;-86.52;0.0;57.312;12.845108;77.66332;;3063.1360279499304;;113.158066;;0 / 22;1981;2016-11-30 16:01:44:189
0.153;12.871;0.919;3.2552;9.2481;0.2315;-3.2552;3.3233;0.8308;-0.829;-1.6316;-1.2684;21.6667;33.75;-10.0;-9.06;197.61;-69.92;-86.52;0.0;57.312;12.845108;77.66332;;3063.1360279499304;;113.158066;;0 / 22;1987;2016-11-30 16:01:44:195
0.153;12.871;0.919;3.2552;9.2481;0.2315;-3.2552;3.3233;0.8308;-0.829;-1.6316;-1.2684;21.6667;33.75;-10.0;-9.06;197.61;-69.92;-86.52;0.0;57.312;12.845108;77.66332;;3063.1360279499304;;113.158066;;0 / 22;1992;2016-11-30 16:01:44:200
0.153;12.871;0.919;3.0509;9.3162;0.2724;-1.5255;4.0179;0.0272;-0.7619;-1.4284;-1.15;21.6667;33.38;-10.25;-9.19;197.61;-69.92;-86.52;0.0;57.312;12.845108;77.66332;;3063.1360279499304;;113.158066;;0 / 22;1996;2016-11-30 16:01:44:204
1.685;12.718;0.306;3.0509;9.3162;0.2724;-1.5255;4.0179;0.0272;-0.7619;-1.4284;-1.15;21.6667;33.38;-10.25;-9.19;197.61;-69.92;-86.52;0.0;57.312;12.845108;77.66332;;3063.1360279499304;;113.158066;;0 / 22;2001;2016-11-30 16:01:44:209
1.685;12.718;0.306;3.0509;9.3162;0.2724;-1.5255;4.0179;0.0272;-0.7153;-1.366;-1.1743;21.6667;33.38;-10.25;-9.19;197.61;-69.92;-86.52;0.0;57.312;12.845108;77.66332;;3063.1360279499304;;113.158066;;0 / 22;2007;2016-11-30 16:01:44:215
1.685;12.718;0.306;3.0509;9.3162;0.2724;-1.5255;4.0179;0.0272;-0.7153;-1.366;-1.1743;21.6667;33.38;-10.25;-9.19;197.61;-69.92;-86.52;0.0;57.312;12.845108;77.66332;;3063.1360279499304;;113.158066;;0 / 22;2011;2016-11-30 16:01:44:219
1.685;12.718;0.306;2.8194;9.3843;0.3269;-0.9806;1.3484;-0.0272;-0.6572;-1.3584;-1.3551;21.6667;32.81;-10.56;-9.25;199.34;-71.8;-84.9;0.0;57.312;12.845108;77.66332;;3063.1360279499304;;113.158066;;0 / 22;2016;2016-11-30 16:01:44:224
1.992;8.427;-0.612;2.8194;9.3843;0.3269;-0.9806;1.3484;-0.0272;-0.6572;-1.3584;-1.3551;21.6667;32.81;-10.56;-9.25;199.34;-71.8;-84.9;0.0;57.312;12.845108;77.66332;;3063.1360279499304;;113.158066;;0 / 22;2022;2016-11-30 16:01:44:230
1.992;8.427;-0.612;2.8194;9.3843;0.3269;-0.9806;1.3484;-0.0272;-0.6572;-1.3584;-1.3551;0.8333;32.81;-10.56;-9.25;199.34;-71.8;-84.9;0.0;57.312;12.845108;77.66332;;3063.1360279499304;;113.158066;;0 / 22;2026;2016-11-30 16:01:44:234
1.992;8.427;-0.612;2.8194;9.3843;0.3269;-0.9806;1.3484;-0.0272;-0.8334;-1.2348;-1.4928;0.8333;32.81;-10.56;-9.25;199.34;-71.8;-84.9;0.0;57.312;12.845108;77.66332;;3063.1360279499304;;113.158066;;0 / 22;2031;2016-11-30 16:01:44:239
1.992;8.427;-0.612;2.8194;9.3843;0.3269;-0.9806;1.3484;-0.0272;-0.8334;-1.2348;-1.4928;0.8333;32.81;-10.56;-9.25;199.34;-71.8;-84.9;0.0;57.312;12.845108;77.66332;;3063.1360279499304;;113.158066;;0 / 22;2036;2016-11-30 16:01:44:244
16.549;2.298;-4.29;2.5606;9.466;0.395;0.6538;-3.1871;-0.5448;-0.6618;-1.189;-1.5582;0.8333;32.13;-10.94;-9.12;199.34;-71.8;-84.9;0.0;57.312;12.845108;77.66332;;3063.1360279499304;;113.158066;;0 / 22;2041;2016-11-30 16:01:44:249
16.549;2.298;-4.29;2.5606;9.466;0.395;0.6538;-3.1871;-0.5448;-0.6618;-1.189;-1.5582;0.8333;32.13;-10.94;-9.12;199.34;-71.8;-84.9;0.0;57.312;12.845108;77.66332;;3063.1360279499304;;113.158066;;0 / 22;2046;2016-11-30 16:01:44:254
16.549;2.298;-4.29;2.5606;9.466;0.395;0.6538;-3.1871;-0.5448;-0.6618;-1.189;-1.5582;0.8333;32.13;-10.94;-9.12;199.34;-71.8;-84.9;0.0;57.312;12.845108;77.66332;;3063.1360279499304;;113.158066;;0 / 22;2052;2016-11-30 16:01:44:260
16.549;2.298;-4.29;2.5606;9.466;0.395;0.6538;-3.1871;-0.5448;-0.6618;-1.189;-1.5582;0.8333;32.13;-10.94;-9.12;199.34;-71.8;-84.9;0.0;57.312;12.845108;77.66332;;3063.1360279499304;;113.158066;;0 / 22;2057;2016-11-30 16:01:44:265
0.919;1.992;0.766;2.4244;9.4932;0.395;2.3154;-8.7305;-0.8444;-0.3643;-1.0426;-0.7273;0.8333;32.31;-11.81;-8.62;203.06;-74.69;-81.23;0.0;57.312;12.845108;77.66332;;3063.1360279499304;;113.158066;;0 / 22;2062;2016-11-30 16:01:44:270
0.919;1.992;0.766;2.4244;9.4932;0.395;2.3154;-8.7305;-0.8444;-0.3643;-1.0426;-0.7273;0.8333;32.31;-11.81;-8.62;203.06;-74.69;-81.23;0.0;57.312;12.845108;77.66332;;3063.1360279499304;;113.158066;;0 / 22;2067;2016-11-30 16:01:44:275
1.072;5.209;-0.766;2.329;9.5205;0.4222;-2.329;-6.7692;0.3405;-0.297;-0.8075;-0.5522;0.8333;31.5;-13.31;-6.81;203.06;-74.69;-81.23;0.0;57.312;12.845108;77.66332;;3063.1360279499304;;113.158066;;0 / 22;2072;2016-11-30 16:01:44:280
1.072;5.209;-0.766;2.329;9.5205;0.4222;-2.329;-6.7692;0.3405;-0.297;-0.8075;-0.5522;0.8333;31.5;-13.31;-6.81;203.06;-74.69;-81.23;0.0;57.312;12.845108;77.66332;;3063.1360279499304;;113.158066;;0 / 22;2077;2016-11-30 16:01:44:285
1.072;5.209;-0.766;2.329;9.5205;0.4222;-2.329;-6.7692;0.3405;-0.297;-0.8075;-0.5522;0.8333;31.5;-13.31;-6.81;203.06;-74.69;-81.23;0.0;57.312;12.845108;77.66332;;3063.1360279499304;;113.158066;;0 / 22;2081;2016-11-30 16:01:44:289
1.072;5.209;-0.766;2.329;9.5205;0.4222;-2.329;-6.7692;0.3405;-0.297;-0.8075;-0.5522;0.8333;31.5;-13.31;-6.81;203.06;-74.69;-81.23;0.0;57.312;12.845108;77.66332;;3063.1360279499304;;113.158066;;0 / 22;2086;2016-11-30 16:01:44:294
6.282;9.04;1.992;2.2609;9.5341;0.4222;2.4789;-1.1032;0.3405;-0.2162;-0.612;-0.3881;0.8333;31.5;-13.75;-5.87;203.06;-74.69;-81.23;0.0;57.312;12.845108;77.66332;;3063.1360279499304;;113.158066;;0 / 22;2091;2016-11-30 16:01:44:299
6.282;9.04;1.992;2.2609;9.5341;0.4222;2.4789;-1.1032;0.3405;-0.2162;-0.612;-0.3881;0.8333;31.5;-13.75;-5.87;203.06;-74.69;-81.23;0.0;57.312;12.845108;77.66332;;3063.1360279499304;;113.158066;;0 / 22;2096;2016-11-30 16:01:44:304
6.282;9.04;1.992;2.2609;9.5341;0.4222;2.4789;-1.1032;0.3405;-0.2162;-0.612;-0.3881;0.8333;31.5;-13.75;-5.87;203.06;-74.69;-81.23;0.0;57.312;12.845108;77.66332;;3063.1360279499304;;113.158066;;0 / 22;2102;2016-11-30 16:01:44:310
6.282;9.04;1.992;2.2609;9.5341;0.4222;2.4789;-1.1032;0.3405;-0.2162;-0.612;-0.3881;0.8333;31.5;-13.75;-5.87;203.06;-74.69;-81.23;0.0;57.312;12.845108;77.66332;;3063.1360279499304;;113.158066;;0 / 22;2107;2016-11-30 16:01:44:315
4.443;9.04;0.612;2.2609;9.5341;0.4222;1.4165;-0.9534;0.6401;-0.0166;-0.3709;0.1364;0.8333;31.81;-14.19;-4.25;196.48;-76.44;-79.42;0.0;57.312;12.845108;77.66332;;3063.1360279499304;;113.158066;;0 / 22;2112;2016-11-30 16:01:44:320
4.443;9.04;0.612;2.2609;9.5341;0.4222;1.4165;-0.9534;0.6401;-0.0166;-0.3709;0.1364;0.8333;31.81;-14.19;-4.25;196.48;-76.44;-79.42;0.0;57.312;12.845108;77.66332;;3063.1360279499304;;113.158066;;0 / 22;2117;2016-11-30 16:01:44:325
4.443;9.04;0.612;2.2609;9.5341;0.4222;1.4165;-0.9534;0.6401;0.0742;-0.2113;0.3308;0.8333;31.81;-14.19;-4.25;196.48;-76.44;-79.42;0.0;57.312;12.845108;77.66332;;3063.1360279499304;;113.158066;;0 / 22;2121;2016-11-30 16:01:44:329
4.443;9.04;0.612;2.2609;9.5341;0.4222;1.4165;-0.9534;0.6401;0.0742;-0.2113;0.3308;0.8333;31.81;-14.19;-4.25;196.48;-76.44;-79.42;0.0;57.312;12.845108;77.66332;;3063.1360279499304;;113.158066;;0 / 22;2126;2016-11-30 16:01:44:334
4.291;11.187;-0.611;2.329;9.5205;0.395;2.5742;1.8251;-1.1577;0.0766;-0.0785;0.3575;0.8333;31.81;-14.31;-3.75;196.48;-76.44;-79.42;0.0;57.312;12.845108;77.66332;;3063.1360279499304;;113.158066;;0 / 22;2131;2016-11-30 16:01:44:339
4.291;11.187;-0.611;2.329;9.5205;0.395;2.5742;1.8251;-1.1577;0.0766;-0.0785;0.3575;0.8333;31.81;-14.31;-3.75;196.48;-76.44;-79.42;0.0;57.312;12.845108;77.66332;;3063.1360279499304;;113.158066;;0 / 22;2137;2016-11-30 16:01:44:345
4.291;11.187;-0.611;2.329;9.5205;0.395;2.5742;1.8251;-1.1577;0.0766;-0.0785;0.3575;0.8333;31.81;-14.31;-3.75;196.48;-76.44;-79.42;0.0;57.312;12.845108;77.66332;;3063.1360279499304;;113.158066;;0 / 22;2144;2016-11-30 16:01:44:352
2.758;10.266;-0.459;2.329;9.5205;0.395;2.5742;1.8251;-1.1577;0.0766;-0.0785;0.3575;0.8333;31.81;-14.31;-3.75;196.48;-76.44;-79.42;0.0;57.312;12.845108;77.66332;;3063.1360279499304;;113.158066;;0 / 22;2147;2016-11-30 16:01:44:355
2.758;10.266;-0.459;2.3971;9.5069;0.3814;0.0545;0.2996;-1.757;0.1151;0.1344;0.4028;0.8333;31.38;-14.62;-2.12;192.25;-76.06;-80.37;0.0;57.312;12.845108;77.66332;;3063.1360279499304;;113.158066;;0 / 22;2151;2016-11-30 16:01:44:359
2.758;10.266;-0.459;2.3971;9.5069;0.3814;0.0545;0.2996;-1.757;0.1151;0.1344;0.4028;0.8333;31.38;-14.62;-2.12;192.25;-76.06;-80.37;0.0;57.312;12.845108;77.66332;;3063.1360279499304;;113.158066;;0 / 22;2156;2016-11-30 16:01:44:364
1.992;9.347;-0.766;2.3971;9.5069;0.3814;0.0545;0.2996;-1.757;0.1151;0.1344;0.4028;0.8333;31.38;-14.62;-2.12;192.25;-76.06;-80.37;0.0;57.312;12.845108;77.66332;;3063.1360279499304;;113.158066;;0 / 22;2162;2016-11-30 16:01:44:370
1.992;9.347;-0.766;2.3971;9.5069;0.3814;0.0545;0.2996;-1.757;0.1151;0.1344;0.4028;0.8333;31.38;-14.62;-2.12;192.25;-76.06;-80.37;0.0;57.312;12.845108;77.66332;;3063.1360279499304;;113.158066;;0 / 22;2167;2016-11-30 16:01:44:375
1.992;9.347;-0.766;2.3971;9.5069;0.3814;0.0545;0.2996;-1.757;0.1151;0.1344;0.4028;0.8333;31.38;-14.62;-2.12;192.25;-76.06;-80.37;0.0;57.312;12.845108;77.66332;;3063.1360279499304;;113.158066;;0 / 22;2172;2016-11-30 16:01:44:380
1.992;9.347;-0.766;2.3971;9.5069;0.3814;0.0545;0.2996;-1.757;0.1151;0.1344;0.4028;0.8333;31.38;-14.62;-2.12;192.25;-76.06;-80.37;0.0;57.312;12.845108;77.66332;;3063.1360279499304;;113.158066;;0 / 22;2177;2016-11-30 16:01:44:385
2.146;8.582;0.613;2.3971;9.5069;0.3814;0.0545;0.2996;-1.757;0.1151;0.1344;0.4028;0.8333;31.38;-14.62;-2.12;192.25;-76.06;-80.37;0.0;57.312;12.845108;77.66332;;3063.1360279499304;;113.158066;;0 / 22;2181;2016-11-30 16:01:44:389
2.146;8.582;0.613;2.3971;9.5069;0.3814;0.0545;0.2996;-1.757;0.1151;0.1344;0.4028;0.8333;31.38;-14.62;-2.12;192.25;-76.06;-80.37;0.0;57.312;12.845108;77.66332;;3063.1360279499304;;113.158066;;0 / 22;2187;2016-11-30 16:01:44:395
2.146;8.582;0.613;2.547;9.466;0.3405;-0.0953;-0.5857;0.7219;0.1541;0.183;0.4652;0.8333;31.25;-15.06;-1.69;191.7;-75.68;-80.96;0.0;57.312;12.845108;77.66332;;3063.1360279499304;;113.158066;;0 / 22;2192;2016-11-30 16:01:44:400
2.146;8.582;0.613;2.547;9.466;0.3405;-0.0953;-0.5857;0.7219;0.1541;0.183;0.4652;0.8333;31.25;-15.06;-1.69;191.7;-75.68;-80.96;0.0;57.312;12.845108;77.66332;;3063.1360279499304;;113.158066;;0 / 22;2196;2016-11-30 16:01:44:404
2.911;9.194;1.072;2.547;9.466;0.3405;-0.0953;-0.5857;0.7219;0.1541;0.183;0.4652;0.8333;31.25;-15.06;-1.69;191.7;-75.68;-80.96;0.0;57.312;12.845108;77.66332;;3063.1360279499304;;113.158066;;0 / 22;2201;2016-11-30 16:01:44:409
2.911;9.194;1.072;2.547;9.466;0.3405;-0.0953;-0.5857;0.7219;0.1541;0.183;0.4652;0.8333;31.25;-15.06;-1.69;191.7;-75.68;-80.96;0.0;57.312;12.845108;77.66332;;3063.1360279499304;;113.158066;;0 / 22;2206;2016-11-30 16:01:44:414
3.371;9.96;0.919;2.6832;9.4388;0.3133;0.3814;0.3677;0.9125;0.2765;0.3624;0.7786;0.8333;31.25;-14.81;-0.69;191.7;-75.68;-80.96;0.0;69.366;12.845108;77.66332;;3063.1360279499304;;113.158066;;0 / 22;2212;2016-11-30 16:01:44:420
3.371;9.96;0.919;2.6832;9.4388;0.3133;0.3814;0.3677;0.9125;0.2765;0.3624;0.7786;0.8333;31.25;-14.81;-0.69;191.7;-75.68;-80.96;0.0;69.366;12.845108;77.66332;;3063.1360279499304;;113.158066;;0 / 22;2217;2016-11-30 16:01:44:425
3.371;9.96;0.919;2.6832;9.4388;0.3133;0.3814;0.3677;0.9125;0.2765;0.3624;0.7786;0.8333;31.25;-14.81;-0.69;191.7;-75.68;-80.96;0.0;69.366;12.845108;77.66332;;3063.1360279499304;;113.158066;;0 / 22;2222;2016-11-30 16:01:44:430
3.371;9.96;0.919;2.6832;9.4388;0.3133;0.3814;0.3677;0.9125;0.2765;0.3624;0.7786;0.8333;31.25;-14.81;-0.69;191.7;-75.68;-80.96;0.0;69.366;12.845108;77.66332;;3063.1360279499304;;113.158066;;0 / 22;2226;2016-11-30 16:01:44:434
3.371;9.96;0.919;2.6832;9.4388;0.3133;0.3814;0.3677;0.9125;0.2765;0.3624;0.7786;0.8333;31.25;-14.81;-0.69;191.7;-75.68;-80.96;0.0;69.366;12.845108;77.66332;;3063.1360279499304;;113.158066;;0 / 22;2231;2016-11-30 16:01:44:439
4.137;10.573;1.225;2.8602;9.3843;0.2724;0.967;1.0351;0.6401;0.4041;0.5135;1.0676;0.8333;31.31;-14.06;-0.12;186.13;-74.03;-83.34;0.0;69.366;12.845108;77.66332;;3063.1360279499304;;113.158066;;0 / 22;2236;2016-11-30 16:01:44:444
4.137;10.573;1.225;2.8602;9.3843;0.2724;0.967;1.0351;0.6401;0.4041;0.5135;1.0676;0.8333;31.31;-14.06;-0.12;186.13;-74.03;-83.34;0.0;69.366;12.845108;77.66332;;3063.1360279499304;;113.158066;;0 / 22;2242;2016-11-30 16:01:44:450
4.137;10.573;1.225;2.8602;9.3843;0.2724;0.967;1.0351;0.6401;0.4041;0.5135;1.0676;0.8333;31.31;-14.06;-0.12;186.13;-74.03;-83.34;0.0;69.366;12.845108;77.66332;;3063.1360279499304;;113.158066;;0 / 22;2247;2016-11-30 16:01:44:455
4.597;11.186;2.758;3.0781;9.3162;0.2315;1.8251;1.5663;1.9068;0.4181;0.6659;1.2894;0.8333;31.06;-13.62;-0.19;186.13;-74.03;-83.34;0.0;69.366;12.845108;77.66332;;3063.1360279499304;;113.158066;;0 / 22;2252;2016-11-30 16:01:44:460
4.597;11.186;2.758;3.0781;9.3162;0.2315;1.8251;1.5663;1.9068;0.4181;0.6659;1.2894;0.8333;31.06;-13.62;-0.19;186.13;-74.03;-83.34;0.0;69.366;12.845108;77.66332;;3063.1360279499304;;113.158066;;0 / 22;2257;2016-11-30 16:01:44:465
4.597;11.186;2.758;3.0781;9.3162;0.2315;1.8251;1.5663;1.9068;0.4181;0.6659;1.2894;0.8333;31.06;-13.62;-0.19;186.13;-74.03;-83.34;0.0;69.366;12.845108;77.66332;;3063.1360279499304;;113.158066;;0 / 22;2261;2016-11-30 16:01:44:469
4.597;11.186;2.758;3.0781;9.3162;0.2315;1.8251;1.5663;1.9068;0.4181;0.6659;1.2894;0.8333;31.06;-13.62;-0.19;186.13;-74.03;-83.34;0.0;69.366;12.845108;77.66332;;3063.1360279499304;;113.158066;;0 / 22;2267;2016-11-30 16:01:44:475
4.137;11.186;1.992;3.3097;9.2345;0.2043;0.9806;2.1111;2.3971;0.4183;0.7458;1.3074;0.8333;31.31;-12.62;-0.19;183.98;-71.67;-85.7;0.0;69.366;12.845108;77.66332;;3063.1360279499304;;113.158066;;0 / 22;2271;2016-11-30 16:01:44:479
4.137;11.186;1.992;3.3097;9.2345;0.2043;0.9806;2.1111;2.3971;0.4183;0.7458;1.3074;0.8333;31.31;-12.62;-0.19;183.98;-71.67;-85.7;0.0;69.366;12.845108;77.66332;;3063.1360279499304;;113.158066;;0 / 22;2276;2016-11-30 16:01:44:484
3.524;11.645;1.838;3.405;9.1936;0.1907;0.2724;2.152;1.4846;0.3499;0.763;1.2174;0.8333;30.81;-12.37;0.0;183.98;-71.67;-85.7;0.0;69.366;12.845108;77.66332;;3063.1360279499304;;113.158066;;0 / 22;2282;2016-11-30 16:01:44:490
3.524;11.645;1.838;3.405;9.1936;0.1907;0.2724;2.152;1.4846;0.3499;0.763;1.2174;0.8333;30.81;-12.37;0.0;183.98;-71.67;-85.7;0.0;69.366;12.845108;77.66332;;3063.1360279499304;;113.158066;;0 / 22;2287;2016-11-30 16:01:44:495
3.524;11.645;1.838;3.405;9.1936;0.1907;0.2724;2.152;1.4846;0.3499;0.763;1.2174;0.8333;30.81;-12.37;0.0;183.98;-71.67;-85.7;0.0;69.366;12.845108;77.66332;;3063.1360279499304;;113.158066;;0 / 22;2292;2016-11-30 16:01:44:500
3.524;11.645;1.838;3.405;9.1936;0.1907;0.2724;2.152;1.4846;0.3499;0.763;1.2174;0.8333;30.81;-12.37;0.0;183.98;-71.67;-85.7;0.0;69.366;12.845108;77.66332;;3063.1360279499304;;113.158066;;0 / 22;2298;2016-11-30 16:01:44:506
4.29;11.492;0.612;3.4459;9.18;0.286;0.3814;2.4652;0.9398;-0.1669;1.0666;0.1023;0.8333;30.81;-12.25;0.25;183.98;-71.67;-85.7;0.0;69.366;12.845108;77.66332;;3063.1360279499304;;113.158066;;0 / 22;2302;2016-11-30 16:01:44:510
4.29;11.492;0.612;3.4459;9.18;0.286;0.3814;2.4652;0.9398;-0.1669;1.0666;0.1023;0.8333;30.81;-12.25;0.25;183.98;-71.67;-85.7;0.0;69.366;12.845108;77.66332;;3063.1360279499304;;113.158066;;0 / 22;2307;2016-11-30 16:01:44:515
4.29;11.492;0.612;3.4459;9.18;0.286;0.3814;2.4652;0.9398;-0.1669;1.0666;0.1023;0.8333;30.81;-12.25;0.25;183.98;-71.67;-85.7;0.0;69.366;12.845108;77.66332;;3063.1360279499304;;113.158066;;0 / 22;2311;2016-11-30 16:01:44:519
4.29;11.492;0.612;3.4459;9.18;0.3677;1.757;2.3154;0.5448;-0.0556;1.0556;0.1088;0.8333;30.38;-12.0;0.94;182.63;-69.36;-85.26;0.0;69.366;12.845108;77.66332;;3063.1360279499304;;113.158066;;0 / 22;2316;2016-11-30 16:01:44:524
5.209;11.645;1.225;3.4459;9.18;0.3677;1.757;2.3154;0.5448;-0.0556;1.0556;0.1088;7.0833;30.38;-12.0;0.94;182.63;-69.36;-85.26;0.0;69.366;12.845108;77.66332;;3063.1360279499304;;113.158066;;0 / 22;2322;2016-11-30 16:01:44:530
5.209;11.645;1.225;3.4459;9.18;0.3677;1.757;2.3154;0.5448;-0.0556;1.0556;0.1088;7.0833;30.38;-12.0;0.94;182.63;-69.36;-85.26;0.0;69.366;12.845108;77.66332;;3063.1360279499304;;113.158066;;0 / 22;2327;2016-11-30 16:01:44:535
5.209;11.645;1.225;3.4459;9.18;0.3677;1.1441;2.4652;1.0896;-0.0583;1.0832;0.0365;7.0833;30.0;-12.62;1.38;182.63;-69.36;-85.26;0.0;69.366;12.845108;77.66332;;3063.1360279499304;;113.158066;;0 / 22;2332;2016-11-30 16:01:44:540
5.209;11.645;1.225;3.4459;9.18;0.4767;1.1441;2.4652;1.0896;-0.0583;1.0832;0.0365;7.0833;30.0;-12.62;1.38;182.63;-69.36;-85.26;0.0;69.366;12.845108;77.66332;;3063.1360279499304;;113.158066;;0 / 22;2336;2016-11-30 16:01:44:544
3.984;11.186;1.685;3.4459;9.18;0.4767;1.1441;2.4652;1.0896;-0.0583;1.0832;0.0365;7.0833;30.0;-12.62;1.38;182.63;-69.36;-85.26;0.0;69.366;12.845108;77.66332;;3063.1360279499304;;113.158066;;0 / 22;2342;2016-11-30 16:01:44:550
3.984;11.186;1.685;3.4459;9.18;0.4767;0.5312;2.3154;1.1986;-0.0461;1.1034;-0.0125;7.0833;30.31;-13.06;2.19;182.63;-69.36;-85.26;0.0;69.366;12.845108;77.66332;;3063.1360279499304;;113.158066;;0 / 22;2347;2016-11-30 16:01:44:555
3.984;11.186;1.685;3.4459;9.18;0.4767;0.5312;2.3154;1.1986;-0.0461;1.1034;-0.0125;7.0833;30.31;-13.06;2.19;182.63;-69.36;-85.26;0.0;69.366;12.845108;77.66332;;3063.1360279499304;;113.158066;;0 / 22;2352;2016-11-30 16:01:44:560
3.984;11.186;1.685;3.4323;9.18;0.5448;0.5312;2.3154;1.1986;-0.0461;1.1034;-0.0125;7.0833;30.31;-13.06;2.19;182.63;-69.36;-85.26;0.0;69.366;12.845108;77.66332;;3063.1360279499304;;113.158066;;0 / 22;2357;2016-11-30 16:01:44:565
4.29;9.653;0.459;3.4323;9.18;0.5448;0.5312;2.3154;1.1986;-0.0461;1.1034;-0.0125;7.0833;30.31;-13.06;2.19;182.63;-69.36;-85.26;0.0;69.366;12.845108;77.66332;;3063.1360279499304;;113.158066;;0 / 22;2361;2016-11-30 16:01:44:569
4.29;9.653;0.459;3.4323;9.18;0.5448;0.5584;0.3133;-1.0215;-0.0436;0.9397;-0.0104;7.0833;29.81;-13.75;3.19;183.01;-69.26;-80.98;0.0;69.366;12.845108;77.66332;;3063.1360279499304;;113.158066;;0 / 22;2366;2016-11-30 16:01:44:574
4.29;9.653;0.459;3.4323;9.18;0.5448;0.5584;0.3133;-1.0215;-0.0436;0.9397;-0.0104;7.0833;29.81;-13.75;3.19;183.01;-69.26;-80.98;0.0;69.366;12.845108;77.66332;;3063.1360279499304;;113.158066;;0 / 22;2371;2016-11-30 16:01:44:579
4.29;9.653;0.459;3.4186;9.18;0.5993;0.5584;0.3133;-1.0215;-0.0289;0.9007;0.0041;7.0833;29.81;-13.75;3.19;183.01;-69.26;-80.98;0.0;69.366;12.845108;77.66332;;3063.1360279499304;;113.158066;;0 / 22;2377;2016-11-30 16:01:44:585
3.677;9.347;-1.992;3.4186;9.18;0.5993;0.5584;0.3133;-1.0215;-0.0289;0.9007;0.0041;7.0833;29.81;-13.75;3.19;183.01;-69.26;-80.98;0.0;69.366;12.845108;77.66332;;3063.1360279499304;;113.158066;;0 / 22;2382;2016-11-30 16:01:44:590
3.677;9.347;-1.992;3.4186;9.18;0.5993;0.2588;0.3133;-1.9749;-0.0289;0.9007;0.0041;7.0833;29.88;-13.37;3.44;183.01;-69.26;-80.98;0.0;69.366;12.845108;77.66332;;3063.1360279499304;;113.158066;;0 / 22;2386;2016-11-30 16:01:44:594
3.677;9.347;-1.992;3.4186;9.18;0.5993;0.2588;0.3133;-1.9749;-0.0289;0.9007;0.0041;7.0833;29.88;-13.37;3.44;183.01;-69.26;-80.98;0.0;69.366;12.845108;77.66332;;3063.1360279499304;;113.158066;;0 / 22;2391;2016-11-30 16:01:44:599
3.677;9.347;-1.992;3.4186;9.18;0.5993;0.2588;0.3133;-1.9749;-0.0289;0.9007;0.0041;7.0833;29.88;-13.37;3.44;183.01;-69.26;-80.98;0.0;69.366;12.845108;77.66332;;3063.1360279499304;;113.158066;;0 / 22;2397;2016-11-30 16:01:44:605
5.209;8.427;-1.532;3.405;9.18;0.6538;1.185;-0.9125;-2.329;0.0303;0.8154;0.0147;7.0833;29.81;-13.81;3.38;183.01;-69.26;-80.98;0.0;69.366;12.845108;77.66332;;3063.1360279499304;;113.158066;;0 / 22;2402;2016-11-30 16:01:44:610
5.209;8.427;-1.532;3.405;9.18;0.6538;1.185;-0.9125;-2.329;0.0303;0.8154;0.0147;7.0833;29.81;-13.81;3.38;183.01;-69.26;-80.98;0.0;69.366;12.845108;77.66332;;3063.1360279499304;;113.158066;;0 / 22;2407;2016-11-30 16:01:44:615
5.209;8.427;-1.532;3.405;9.18;0.6538;1.185;-0.9125;-2.329;0.0303;0.8154;0.0147;7.0833;29.81;-13.81;3.38;183.01;-69.26;-80.98;0.0;69.366;12.845108;77.66332;;3063.1360279499304;;113.158066;;0 / 22;2411;2016-11-30 16:01:44:619
5.209;8.427;-1.532;3.4186;9.1664;0.6674;3.7864;1.2531;-3.8817;0.252;0.6564;0.267;7.0833;29.81;-14.19;3.06;184.69;-69.31;-79.13;0.0;69.366;12.845108;77.66332;;3063.1360279499304;;113.158066;;0 / 22;2416;2016-11-30 16:01:44:624
9.194;11.339;-3.371;3.4186;9.1664;0.6674;3.7864;1.2531;-3.8817;0.252;0.6564;0.267;7.0833;29.81;-14.19;3.06;184.69;-69.31;-79.13;0.0;69.366;12.845108;77.66332;;3063.1360279499304;;113.158066;;0 / 22;2422;2016-11-30 16:01:44:630
9.194;11.339;-3.371;3.4186;9.1664;0.6674;3.7864;1.2531;-3.8817;0.5291;0.462;0.661;7.0833;29.81;-14.19;3.06;184.69;-69.31;-79.13;0.0;69.366;12.845108;77.66332;;3063.1360279499304;;113.158066;;0 / 22;2427;2016-11-30 16:01:44:635
9.194;11.339;-3.371;3.4186;9.1664;0.6674;3.7864;1.2531;-3.8817;0.5291;0.462;0.661;7.0833;29.81;-14.19;3.06;184.69;-69.31;-79.13;0.0;69.366;12.845108;77.66332;;3063.1360279499304;;113.158066;;0 / 22;2432;2016-11-30 16:01:44:640
9.194;11.339;-3.371;3.5412;9.1255;0.5857;8.7169;0.5312;-4.876;0.5291;0.462;0.661;7.0833;29.81;-14.44;3.44;184.69;-69.31;-79.13;0.0;69.366;12.845108;77.66332;;3063.1360279499304;;113.158066;;0 / 22;2436;2016-11-30 16:01:44:644
9.194;11.339;-3.371;3.5412;9.1255;0.5857;8.7169;0.5312;-4.876;0.5291;0.462;0.661;7.0833;29.81;-14.44;3.44;184.69;-69.31;-79.13;0.0;69.366;12.845108;77.66332;;3063.1360279499304;;113.158066;;0 / 22;2441;2016-11-30 16:01:44:649
9.04;9.194;-2.758;3.5412;9.1255;0.5857;8.7169;0.5312;-4.876;0.5291;0.462;0.661;7.0833;29.81;-14.44;3.44;184.69;-69.31;-79.13;0.0;69.366;12.845108;77.66332;;3063.1360279499304;;113.158066;;0 / 22;2447;2016-11-30 16:01:44:655
9.04;9.194;-2.758;3.6093;9.0983;0.5448;3.7455;-0.2179;-1.6072;0.6395;0.3226;0.8604;7.0833;29.69;-13.94;2.75;184.69;-69.31;-79.13;0.0;69.366;12.845108;77.66332;;3063.1360279499304;;113.158066;;0 / 22;2451;2016-11-30 16:01:44:659
9.04;9.194;-2.758;3.6093;9.0983;0.5448;3.7455;-0.2179;-1.6072;0.6395;0.3226;0.8604;7.0833;29.69;-13.94;2.75;184.69;-69.31;-79.13;0.0;69.366;12.845108;77.66332;;3063.1360279499304;;113.158066;;0 / 22;2456;2016-11-30 16:01:44:664
6.436;6.59;4.751;3.6093;9.0983;0.5448;3.7455;-0.2179;-1.6072;0.6027;0.3035;0.895;7.0833;29.69;-13.94;2.75;184.69;-69.31;-79.13;0.0;69.366;12.845108;77.66332;;3063.1360279499304;;113.158066;;0 / 22;2461;2016-11-30 16:01:44:669
6.436;6.59;4.751;3.8409;9.0165;0.4358;4.8896;-1.5118;2.3154;0.496;0.3665;0.9591;7.0833;30.13;-13.62;2.88;182.61;-68.14;-81.42;0.0;69.366;12.845108;77.66332;;3063.1360279499304;;113.158066;;0 / 22;2467;2016-11-30 16:01:44:675
6.436;6.59;4.751;3.8409;9.0165;0.4358;4.8896;-1.5118;2.3154;0.496;0.3665;0.9591;7.0833;30.13;-13.62;2.88;182.61;-68.14;-81.42;0.0;69.366;12.845108;77.66332;;3063.1360279499304;;113.158066;;0 / 22;2472;2016-11-30 16:01:44:680
6.436;6.59;4.751;3.8409;9.0165;0.4358;4.8896;-1.5118;2.3154;0.496;0.3665;0.9591;7.0833;30.13;-13.62;2.88;182.61;-68.14;-81.42;0.0;69.366;12.845108;77.66332;;3063.1360279499304;;113.158066;;0 / 22;2476;2016-11-30 16:01:44:684
7.661;9.653;-1.838;3.8409;9.0165;0.4358;4.8896;-1.5118;2.3154;0.496;0.3665;0.9591;7.0833;30.13;-13.62;2.88;182.61;-68.14;-81.42;0.0;69.366;12.845108;77.66332;;3063.1360279499304;;113.158066;;0 / 22;2481;2016-11-30 16:01:44:689
7.661;9.653;-1.838;4.0043;8.9484;0.3814;3.3505;1.9341;-5.1212;0.5672;0.3071;1.0726;7.0833;31.0;-13.12;2.63;182.61;-68.14;-81.42;0.0;69.366;12.845108;77.66332;;3063.1360279499304;;113.158066;;0 / 22;2486;2016-11-30 16:01:44:694
7.661;9.653;-1.838;4.0043;8.9484;0.3814;3.3505;1.9341;-5.1212;0.5672;0.3071;1.0726;7.0833;31.0;-13.12;2.63;182.61;-68.14;-81.42;0.0;69.366;12.845108;77.66332;;3063.1360279499304;;113.158066;;0 / 22;2492;2016-11-30 16:01:44:700
7.661;9.653;-1.838;4.0043;8.9484;0.3814;3.3505;1.9341;-5.1212;1.0237;0.0641;1.0854;7.0833;31.0;-13.12;2.63;182.61;-68.14;-81.42;0.0;69.366;12.845108;77.66332;;3063.1360279499304;;113.158066;;0 / 22;2497;2016-11-30 16:01:44:705
7.661;9.653;-1.838;4.0043;8.9484;0.3814;3.3505;1.9341;-5.1212;1.0237;0.0641;1.0854;7.0833;31.0;-13.12;2.63;182.61;-68.14;-81.42;0.0;69.366;12.845108;77.66332;;3063.1360279499304;;113.158066;;0 / 22;2502;2016-11-30 16:01:44:710
5.056;18.081;-7.355;4.0043;8.9484;0.3814;3.3505;1.9341;-5.1212;1.0237;0.0641;1.0854;7.0833;31.0;-13.12;2.63;182.61;-68.14;-81.42;0.0;69.366;12.845108;77.66332;;3063.1360279499304;;113.158066;;0 / 22;2506;2016-11-30 16:01:44:714
5.056;18.081;-7.355;4.1678;8.8803;0.1907;0.8853;9.2072;-7.5455;1.2615;-0.1153;0.9144;7.0833;31.88;-12.62;2.06;181.73;-65.8;-84.56;0.0;69.366;12.845108;77.66332;;3063.1360279499304;;113.158066;;0 / 22;2511;2016-11-30 16:01:44:719
5.056;18.081;-7.355;4.1678;8.8803;0.1907;0.8853;9.2072;-7.5455;1.2615;-0.1153;0.9144;7.0833;31.88;-12.62;2.06;181.73;-65.8;-84.56;0.0;69.366;12.845108;77.66332;;3063.1360279499304;;113.158066;;0 / 22;2517;2016-11-30 16:01:44:725
6.896;19.461;-3.37;4.1678;8.8803;0.1907;0.8853;9.2072;-7.5455;1.2615;-0.1153;0.9144;7.0833;31.88;-12.62;2.06;181.73;-65.8;-84.56;0.0;69.366;12.845108;77.66332;;3063.1360279499304;;113.158066;;0 / 22;2522;2016-11-30 16:01:44:730
6.896;19.461;-3.37;4.1678;8.8803;0.1907;0.8853;9.2072;-7.5455;1.2615;-0.1153;0.9144;7.0833;31.88;-12.62;2.06;181.73;-65.8;-84.56;0.0;69.366;12.845108;77.66332;;3063.1360279499304;;113.158066;;0 / 22;2527;2016-11-30 16:01:44:735
6.896;19.461;-3.37;4.2903;8.8258;-0.0272;3.2143;10.6373;-3.1871;1.2184;-0.2269;0.6684;7.0833;32.5;-12.62;0.31;181.73;-65.8;-84.56;0.0;69.366;12.845108;77.66332;;3063.1360279499304;;113.158066;;0 / 22;2531;2016-11-30 16:01:44:739
6.896;19.461;-3.37;4.2903;8.8258;-0.0272;3.2143;10.6373;-3.1871;1.2184;-0.2269;0.6684;7.0833;32.5;-12.62;0.31;181.73;-65.8;-84.56;0.0;69.366;12.845108;77.66332;;3063.1360279499304;;113.158066;;0 / 22;2536;2016-11-30 16:01:44:744
6.743;19.461;-5.362;4.2903;8.8258;-0.0272;3.2143;10.6373;-3.1871;1.2184;-0.2269;0.6684;7.0833;32.5;-12.62;0.31;181.73;-65.8;-84.56;0.0;55.631;12.845108;77.66332;;3063.1360279499304;;113.158066;;0 / 22;2542;2016-11-30 16:01:44:750
6.743;19.461;-5.362;4.3584;8.785;-0.2588;2.2337;10.6782;-4.6445;1.2468;-0.4014;0.3714;7.0833;32.81;-12.44;-0.56;181.3;-64.07;-90.36;0.0;55.631;12.845108;77.66332;;3063.1360279499304;;113.158066;;0 / 22;2547;2016-11-30 16:01:44:755
6.743;19.461;-5.362;4.3584;8.785;-0.2588;2.2337;10.6782;-4.6445;1.2468;-0.4014;0.3714;7.0833;32.81;-12.44;-0.56;181.3;-64.07;-90.36;0.0;55.631;12.845108;77.66332;;3063.1360279499304;;113.158066;;0 / 22;2552;2016-11-30 16:01:44:760
6.743;19.461;-5.362;4.3584;8.785;-0.2588;2.2337;10.6782;-4.6445;1.2356;-0.5904;0.318;7.0833;32.81;-12.44;-0.56;181.3;-64.07;-90.36;0.0;55.631;12.845108;77.66332;;3063.1360279499304;;113.158066;;0 / 22;2557;2016-11-30 16:01:44:765
8.428;19.461;-6.281;4.3584;8.785;-0.2588;2.2337;10.6782;-4.6445;1.2356;-0.5904;0.318;7.0833;32.81;-12.44;-0.56;181.3;-64.07;-90.36;0.0;55.631;12.845108;77.66332;;3063.1360279499304;;113.158066;;0 / 22;2561;2016-11-30 16:01:44:769
8.428;19.461;-6.281;4.3584;8.785;-0.2588;2.2337;10.6782;-4.6445;1.2356;-0.5904;0.318;7.0833;32.81;-12.44;-0.56;181.3;-64.07;-90.36;0.0;55.631;12.845108;77.66332;;3063.1360279499304;;113.158066;;0 / 22;2566;2016-11-30 16:01:44:774
8.274;19.46;-6.282;4.3993;8.7441;-0.5176;4.0316;10.719;-5.7613;1.0739;-0.7889;0.2991;7.0833;32.94;-12.69;-3.87;181.3;-64.07;-90.36;0.0;55.631;12.845108;77.66332;;3063.1360279499304;;113.158066;;0 / 22;2571;2016-11-30 16:01:44:779
8.274;19.46;-6.282;4.3993;8.7441;-0.5176;4.0316;10.719;-5.7613;1.0739;-0.7889;0.2991;7.0833;32.94;-12.69;-3.87;181.3;-64.07;-90.36;0.0;55.631;12.845108;77.66332;;3063.1360279499304;;113.158066;;0 / 22;2576;2016-11-30 16:01:44:784
8.274;19.46;-6.282;4.3993;8.7441;-0.5176;4.0316;10.719;-5.7613;1.0739;-0.7889;0.2991;7.0833;32.94;-12.69;-3.87;181.3;-64.07;-90.36;0.0;55.631;12.845108;77.66332;;3063.1360279499304;;113.158066;;0 / 22;2582;2016-11-30 16:01:44:790
8.274;19.46;-6.282;4.3993;8.7441;-0.5176;4.0316;10.719;-5.7613;1.0739;-0.7889;0.2991;7.0833;32.94;-12.69;-3.87;181.3;-64.07;-90.36;0.0;55.631;12.845108;77.66332;;3063.1360279499304;;113.158066;;0 / 22;2587;2016-11-30 16:01:44:795
7.355;18.541;-7.814;4.4265;8.7169;-0.7763;2.9283;10.2832;-6.4287;0.9807;-1.2757;0.2446;7.0833;32.06;-13.31;-7.5;185.25;-63.13;-96.71;0.0;55.631;12.845108;77.66332;;3063.1360279499304;;113.158066;;0 / 22;2592;2016-11-30 16:01:44:800
7.355;18.541;-7.814;4.4265;8.7169;-0.7763;2.9283;10.2832;-6.4287;0.9807;-1.2757;0.2446;7.0833;32.06;-13.31;-7.5;185.25;-63.13;-96.71;0.0;55.631;12.845108;77.66332;;3063.1360279499304;;113.158066;;0 / 22;2597;2016-11-30 16:01:44:805
7.355;18.541;-7.814;4.4265;8.7169;-0.7763;2.9283;10.2832;-6.4287;0.9807;-1.2757;0.2446;7.0833;32.06;-13.31;-7.5;185.25;-63.13;-96.71;0.0;55.631;12.845108;77.66332;;3063.1360279499304;;113.158066;;0 / 22;2602;2016-11-30 16:01:44:810
7.355;18.541;-7.814;4.4538;8.676;-1.0487;2.5878;8.0359;-7.0688;0.8407;-1.54;0.2512;7.0833;31.25;-14.06;-8.62;185.25;-63.13;-96.71;0.0;55.631;12.845108;77.66332;;3063.1360279499304;;113.158066;;0 / 22;2607;2016-11-30 16:01:44:815
7.355;18.541;-7.814;4.4538;8.676;-1.0487;2.5878;8.0359;-7.0688;0.8407;-1.54;0.2512;7.0833;31.25;-14.06;-8.62;185.25;-63.13;-96.71;0.0;55.631;12.845108;77.66332;;3063.1360279499304;;113.158066;;0 / 22;2612;2016-11-30 16:01:44:820
5.056;14.863;-8.887;4.4538;8.676;-1.0487;2.5878;8.0359;-7.0688;0.7317;-1.4982;0.222;7.0833;31.25;-14.06;-8.62;185.25;-63.13;-96.71;0.0;55.631;12.845108;77.66332;;3063.1360279499304;;113.158066;;0 / 22;2617;2016-11-30 16:01:44:825
5.056;14.863;-8.887;4.4538;8.676;-1.0487;2.5878;8.0359;-7.0688;0.7317;-1.4982;0.222;7.0833;31.25;-14.06;-8.62;185.25;-63.13;-96.71;0.0;55.631;12.845108;77.66332;;3063.1360279499304;;113.158066;;0 / 22;2621;2016-11-30 16:01:44:829
5.056;14.863;-8.887;4.4538;8.6352;-1.3212;0.1362;4.8488;-8.1721;0.7317;-1.4982;0.222;7.0833;30.63;-14.06;-11.0;185.8;-62.19;-103.25;0.0;55.631;12.845108;77.66332;;3063.1360279499304;;113.158066;;0 / 22;2626;2016-11-30 16:01:44:834
3.064;9.653;-7.968;4.4538;8.6352;-1.3212;0.1362;4.8488;-8.1721;0.7317;-1.4982;0.222;7.0833;30.63;-14.06;-11.0;185.8;-62.19;-103.25;0.0;55.631;12.845108;77.66332;;3063.1360279499304;;113.158066;;0 / 22;2631;2016-11-30 16:01:44:839
3.064;9.653;-7.968;4.4538;8.6352;-1.3212;0.1362;4.8488;-8.1721;0.7074;-1.7448;0.1702;6.0417;30.63;-14.06;-11.0;185.8;-62.19;-103.25;0.0;55.631;12.845108;77.66332;;3063.1360279499304;;113.158066;;0 / 22;2638;2016-11-30 16:01:44:846
3.064;9.653;-7.968;4.4538;8.6352;-1.3212;0.1362;4.8488;-8.1721;0.7074;-1.7448;0.1702;6.0417;30.63;-14.06;-11.0;185.8;-62.19;-103.25;0.0;55.631;12.845108;77.66332;;3063.1360279499304;;113.158066;;0 / 22;2644;2016-11-30 16:01:44:852
-2.451;5.669;-3.524;4.4265;8.6079;-1.5799;-5.6523;-1.866;-5.162;0.6782;-1.8091;0.0894;6.0417;30.63;-15.0;-11.81;185.8;-62.19;-103.25;0.0;55.631;12.845108;77.66332;;3063.1360279499304;;113.158066;;0 / 22;2647;2016-11-30 16:01:44:855
-2.451;5.669;-3.524;4.4265;8.6079;-1.5799;-5.6523;-1.866;-5.162;0.6782;-1.8091;0.0894;6.0417;30.63;-15.0;-11.81;185.8;-62.19;-103.25;0.0;55.631;12.845108;77.66332;;3063.1360279499304;;113.158066;;0 / 22;2651;2016-11-30 16:01:44:859
-2.451;5.669;-3.524;4.4265;8.6079;-1.5799;-5.6523;-1.866;-5.162;0.5078;-2.1039;-0.5405;6.0417;30.63;-15.0;-11.81;185.8;-62.19;-103.25;0.0;55.631;12.845108;77.66332;;3063.1360279499304;;113.158066;;0 / 22;2656;2016-11-30 16:01:44:864
-5.209;3.677;-1.685;4.4265;8.6079;-1.5799;-5.6523;-1.866;-5.162;0.5078;-2.1039;-0.5405;6.0417;30.63;-15.0;-11.81;185.8;-62.19;-103.25;0.0;55.631;12.845108;77.66332;;3063.1360279499304;;113.158066;;0 / 22;2661;2016-11-30 16:01:44:869
