sep=;
ACCELEROMETER X (m/s²);ACCELEROMETER Y (m/s²);ACCELEROMETER Z (m/s²);GRAVITY X (m/s²);GRAVITY Y (m/s²);GRAVITY Z (m/s²);LINEAR ACCELERATION X (m/s²);LINEAR ACCELERATION Y (m/s²);LINEAR ACCELERATION Z (m/s²);GYROSCOPE X (rad/s);GYROSCOPE Y (rad/s);GYROSCOPE Z (rad/s);LIGHT (lux);MAGNETIC FIELD X (μT);MAGNETIC FIELD Y (μT);MAGNETIC FIELD Z (μT);ORIENTATION Z (azimuth °);ORIENTATION X (pitch °);ORIENTATION Y (roll °);PROXIMITY (i);SOUND LEVEL (dB);LOCATION Latitude : ;LOCATION Longitude : ;LOCATION Altitude ( m);LOCATION Altitude-google ( m);LOCATION Speed ( Kmh);LOCATION Accuracy ( m);LOCATION ORIENTATION (°);Satellites in range;Time since start in ms ;YYYY-MO-DD HH-MI-SS_SSS
3.831;2.299;4.291;4.8215;5.5298;6.5104;-1.1441;-3.0781;-1.3075;1.3573;-0.2555;0.3428;156.6038;9.63;-26.87;3.25;192.13;-32.12;-33.64;0.4;52.783;12.845108;77.66332;;3063.1360279499304;;85.55161;;0 / 23;70;2016-11-30 15:59:27:894
3.831;2.299;4.291;4.9032;5.6387;6.3606;-0.9262;-3.3505;-2.5333;1.0788;-0.4151;0.5882;156.6038;10.06;-25.75;3.25;193.42;-34.32;-36.52;0.4;52.783;12.845108;77.66332;;3063.1360279499304;;85.55161;;0 / 23;74;2016-11-30 15:59:27:898
3.831;2.299;4.291;4.9032;5.6387;6.3606;-0.9262;-3.3505;-2.5333;1.0788;-0.4151;0.5882;156.6038;10.06;-25.75;3.25;193.42;-34.32;-36.52;0.4;52.783;12.845108;77.66332;;3063.1360279499304;;85.55161;;0 / 23;80;2016-11-30 15:59:27:904
5.669;2.604;0.612;4.9032;5.6387;6.3606;-0.9262;-3.3505;-2.5333;0.7573;-0.054;0.673;156.6038;10.06;-25.75;3.25;193.42;-34.32;-36.52;0.4;52.783;12.845108;77.66332;;3063.1360279499304;;85.55161;;0 / 23;85;2016-11-30 15:59:27:909
5.669;2.604;0.612;4.9032;5.6387;6.3606;-0.9262;-3.3505;-2.5333;0.7573;-0.054;0.673;156.6038;10.06;-25.75;3.25;193.42;-34.32;-36.52;0.4;52.783;12.845108;77.66332;;3063.1360279499304;;85.55161;;0 / 23;90;2016-11-30 15:59:27:914
5.669;2.604;0.612;4.985;5.6523;6.2789;1.4437;-2.9011;-4.2903;0.6782;-0.1003;0.6553;156.6038;9.81;-24.19;2.38;193.42;-34.32;-36.52;0.4;52.783;12.845108;77.66332;;3063.1360279499304;;85.55161;;0 / 23;94;2016-11-30 15:59:27:918
5.669;2.604;0.612;4.985;5.6523;6.2789;1.4437;-2.9011;-4.2903;0.6782;-0.1003;0.6553;156.6038;9.81;-24.19;2.38;193.42;-34.32;-36.52;0.4;52.783;12.845108;77.66332;;3063.1360279499304;;85.55161;;0 / 23;99;2016-11-30 15:59:27:923
7.202;3.984;2.298;4.985;5.6523;6.2789;1.4437;-2.9011;-4.2903;0.604;-0.3008;0.6204;156.6038;9.81;-24.19;2.38;193.42;-34.32;-36.52;0.4;52.783;12.845108;77.66332;;3063.1360279499304;;85.55161;;0 / 23;105;2016-11-30 15:59:27:929
7.202;3.984;2.298;4.985;5.6523;6.2789;1.4437;-2.9011;-4.2903;0.604;-0.3008;0.6204;156.6038;9.81;-24.19;2.38;193.42;-34.32;-36.52;0.4;52.783;12.845108;77.66332;;3063.1360279499304;;85.55161;;0 / 23;110;2016-11-30 15:59:27:934
7.202;3.984;2.298;5.0803;5.666;6.1835;-0.0272;1.076;-3.119;0.604;-0.3008;0.6204;156.6038;10.25;-24.62;3.31;193.23;-35.19;-38.45;0.4;52.783;12.845108;77.66332;;3063.1360279499304;;85.55161;;0 / 23;114;2016-11-30 15:59:27:938
9.96;11.492;0.459;5.0803;5.666;6.1835;-0.0272;1.076;-3.119;0.604;-0.3008;0.6204;156.6038;10.25;-24.62;3.31;193.23;-35.19;-38.45;0.4;52.783;12.845108;77.66332;;3063.1360279499304;;85.55161;;0 / 23;119;2016-11-30 15:59:27:943
9.96;11.492;0.459;5.0803;5.666;6.1835;-0.0272;1.076;-3.119;0.604;-0.3008;0.6204;156.6038;10.25;-24.62;3.31;193.23;-35.19;-38.45;0.4;52.783;12.845108;77.66332;;3063.1360279499304;;85.55161;;0 / 23;125;2016-11-30 15:59:27:949
9.96;11.492;0.459;5.0803;5.666;6.1835;-0.0272;1.076;-3.119;0.604;-0.3008;0.6204;156.6038;10.25;-24.62;3.31;193.23;-35.19;-38.45;0.4;52.783;12.845108;77.66332;;3063.1360279499304;;85.55161;;0 / 23;130;2016-11-30 15:59:27:954
9.96;11.492;0.459;5.0803;5.666;6.1835;-0.0272;1.076;-3.119;0.604;-0.3008;0.6204;156.6038;10.25;-24.62;3.31;193.23;-35.19;-38.45;0.4;52.783;12.845108;77.66332;;3063.1360279499304;;85.55161;;0 / 23;135;2016-11-30 15:59:27:959
5.669;9.807;-0.459;5.2574;5.7341;5.9792;1.9477;6.524;-4.1405;0.8541;-0.7693;0.27;156.6038;11.13;-23.56;3.0;193.23;-35.19;-38.45;0.4;52.783;12.845108;77.66332;;3063.1360279499304;;85.55161;;0 / 23;140;2016-11-30 15:59:27:964
5.669;9.807;-0.459;5.2574;5.7341;5.9792;1.9477;6.524;-4.1405;0.8541;-0.7693;0.27;156.6038;11.13;-23.56;3.0;193.23;-35.19;-38.45;0.4;52.783;12.845108;77.66332;;3063.1360279499304;;85.55161;;0 / 23;144;2016-11-30 15:59:27:968
5.669;9.807;-0.459;5.2574;5.7341;5.9792;1.9477;6.524;-4.1405;0.8541;-0.7693;0.27;156.6038;11.13;-23.56;3.0;193.23;-35.19;-38.45;0.4;52.783;12.845108;77.66332;;3063.1360279499304;;85.55161;;0 / 23;150;2016-11-30 15:59:27:974
4.137;8.274;-1.379;5.3663;5.8567;5.7477;-1.3893;2.2609;-6.9735;1.1467;-1.2299;-0.1737;156.6038;12.13;-23.0;3.81;194.27;-35.76;-41.32;0.4;46.821;12.845108;77.66332;;3063.1360279499304;;85.55161;;0 / 23;155;2016-11-30 15:59:27:979
4.137;8.274;-1.379;5.3663;5.8567;5.7477;-1.3893;2.2609;-6.9735;1.1467;-1.2299;-0.1737;156.6038;12.13;-23.0;3.81;194.27;-35.76;-41.32;0.4;46.821;12.845108;77.66332;;3063.1360279499304;;85.55161;;0 / 23;160;2016-11-30 15:59:27:984
4.137;8.274;-1.379;5.3663;5.8567;5.7477;-1.3893;2.2609;-6.9735;1.1467;-1.2299;-0.1737;156.6038;12.13;-23.0;3.81;194.27;-35.76;-41.32;0.4;46.821;12.845108;77.66332;;3063.1360279499304;;85.55161;;0 / 23;165;2016-11-30 15:59:27:989
4.597;4.137;1.685;5.3663;5.8567;5.7477;-1.3893;2.2609;-6.9735;1.1467;-1.2299;-0.1737;156.6038;12.13;-23.0;3.81;194.27;-35.76;-41.32;0.4;46.821;12.845108;77.66332;;3063.1360279499304;;85.55161;;0 / 23;169;2016-11-30 15:59:27:993
4.597;4.137;1.685;5.4753;6.0065;5.5025;-0.8853;-1.8796;-3.8273;1.0409;-1.4107;-0.2863;156.6038;12.63;-23.25;4.63;194.27;-35.76;-41.32;0.4;46.821;12.845108;77.66332;;3063.1360279499304;;85.55161;;0 / 23;174;2016-11-30 15:59:27:998
4.597;4.137;1.685;5.4753;6.0065;5.5025;-0.8853;-1.8796;-3.8273;1.0409;-1.4107;-0.2863;156.6038;12.63;-23.25;4.63;194.27;-35.76;-41.32;0.4;46.821;12.845108;77.66332;;3063.1360279499304;;85.55161;;0 / 23;180;2016-11-30 15:59:28:004
4.597;4.137;1.685;5.5434;6.0337;5.3936;-6.919;-12.6259;-2.1792;0.6169;-1.1503;-0.0398;156.6038;13.94;-23.69;6.19;194.27;-35.76;-41.32;0.4;46.821;12.845108;77.66332;;3063.1360279499304;;85.55161;;0 / 23;185;2016-11-30 15:59:28:009
-0.306;3.064;9.96;5.5434;6.0337;5.3936;-6.919;-12.6259;-2.1792;0.6169;-1.1503;-0.0398;156.6038;13.94;-23.69;6.19;194.27;-35.76;-41.32;0.4;46.821;12.845108;77.66332;;3063.1360279499304;;85.55161;;0 / 23;189;2016-11-30 15:59:28:013
-0.306;3.064;9.96;5.5434;6.0337;5.3936;-6.919;-12.6259;-2.1792;0.6169;-1.1503;-0.0398;156.6038;13.94;-23.69;6.19;194.27;-35.76;-41.32;0.4;46.821;12.845108;77.66332;;3063.1360279499304;;85.55161;;0 / 23;194;2016-11-30 15:59:28:018
-0.306;3.064;9.96;5.5842;6.061;5.3255;-7.8724;-6.2108;3.405;0.4104;-0.8293;-0.0611;156.6038;15.13;-23.5;7.0;191.1;-37.96;-45.78;0.4;46.821;12.845108;77.66332;;3063.1360279499304;;85.55161;;0 / 23;199;2016-11-30 15:59:28:023
-0.306;3.064;9.96;5.5842;6.061;5.3255;-7.8724;-6.2108;3.405;0.4104;-0.8293;-0.0611;156.6038;15.13;-23.5;7.0;191.1;-37.96;-45.78;0.4;46.821;12.845108;77.66332;;3063.1360279499304;;85.55161;;0 / 23;205;2016-11-30 15:59:28:029
8.274;2.911;8.121;5.5842;6.061;5.3255;-7.8724;-6.2108;3.405;0.4104;-0.8293;-0.0611;156.6038;15.13;-23.5;7.0;191.1;-37.96;-45.78;0.4;46.821;12.845108;77.66332;;3063.1360279499304;;85.55161;;0 / 23;210;2016-11-30 15:59:28:034
8.274;2.911;8.121;5.6523;6.1018;5.2165;3.3914;-2.5878;0.9125;0.306;-0.7399;-0.0461;156.6038;15.75;-22.69;7.31;191.1;-37.96;-45.78;0.4;46.821;12.845108;77.66332;;3063.1360279499304;;85.55161;;0 / 23;215;2016-11-30 15:59:28:039
8.274;2.911;8.121;5.6523;6.1018;5.2165;3.3914;-2.5878;0.9125;0.306;-0.7399;-0.0461;156.6038;15.75;-22.69;7.31;191.1;-37.96;-45.78;0.4;46.821;12.845108;77.66332;;3063.1360279499304;;85.55161;;0 / 23;220;2016-11-30 15:59:28:044
8.274;2.911;8.121;5.6523;6.1018;5.2165;3.3914;-2.5878;0.9125;0.306;-0.7399;-0.0461;156.6038;15.75;-22.69;7.31;191.1;-37.96;-45.78;0.4;46.821;12.845108;77.66332;;3063.1360279499304;;85.55161;;0 / 23;225;2016-11-30 15:59:28:049
8.274;2.911;8.121;5.6796;6.1018;5.162;1.5255;-2.5878;4.0316;0.1922;-0.7341;0.0166;156.6038;16.56;-22.31;7.56;191.1;-37.96;-45.78;0.4;46.821;12.845108;77.66332;;3063.1360279499304;;85.55161;;0 / 23;230;2016-11-30 15:59:28:054
11.952;17.775;2.145;5.6796;6.1018;5.162;1.5255;-2.5878;4.0316;0.1922;-0.7341;0.0166;156.6038;16.56;-22.31;7.56;191.1;-37.96;-45.78;0.4;46.821;12.845108;77.66332;;3063.1360279499304;;85.55161;;0 / 23;234;2016-11-30 15:59:28:058
11.952;17.775;2.145;5.6796;6.1018;5.162;1.5255;-2.5878;4.0316;0.1922;-0.7341;0.0166;156.6038;16.56;-22.31;7.56;191.1;-37.96;-45.78;0.4;46.821;12.845108;77.66332;;3063.1360279499304;;85.55161;;0 / 23;239;2016-11-30 15:59:28:063
11.952;17.775;2.145;5.7749;6.1291;5.0258;6.1835;11.6452;-2.8875;0.4843;-1.3153;0.0687;156.6038;17.63;-21.87;7.81;192.1;-38.49;-47.73;0.4;46.821;12.845108;77.66332;;3063.1360279499304;;85.55161;;0 / 23;244;2016-11-30 15:59:28:068
11.952;17.775;2.145;5.7749;6.1291;5.0258;6.1835;11.6452;-2.8875;0.4843;-1.3153;0.0687;156.6038;17.63;-21.87;7.81;192.1;-38.49;-47.73;0.4;46.821;12.845108;77.66332;;3063.1360279499304;;85.55161;;0 / 23;249;2016-11-30 15:59:28:073
7.508;15.629;-6.435;5.7749;6.1291;5.0258;6.1835;11.6452;-2.8875;0.4843;-1.3153;0.0687;156.6038;17.63;-21.87;7.81;192.1;-38.49;-47.73;0.4;46.821;12.845108;77.66332;;3063.1360279499304;;85.55161;;0 / 23;254;2016-11-30 15:59:28:078
7.508;15.629;-6.435;5.8567;6.1835;4.876;6.8645;11.5907;-10.2423;1.0033;-1.8749;-0.18;116.8966;18.81;-20.87;8.19;192.1;-38.49;-47.73;0.4;46.821;12.845108;77.66332;;3063.1360279499304;;85.55161;;0 / 23;260;2016-11-30 15:59:28:084
7.508;15.629;-6.435;5.8567;6.1835;4.876;6.8645;11.5907;-10.2423;1.0033;-1.8749;-0.18;116.8966;18.81;-20.87;8.19;192.1;-38.49;-47.73;0.4;46.821;12.845108;77.66332;;3063.1360279499304;;85.55161;;0 / 23;264;2016-11-30 15:59:28:088
7.508;15.629;-6.435;5.8567;6.1835;4.876;6.8645;11.5907;-10.2423;1.0033;-1.8749;-0.18;116.8966;18.81;-20.87;8.19;192.1;-38.49;-47.73;0.4;46.821;12.845108;77.66332;;3063.1360279499304;;85.55161;;0 / 23;269;2016-11-30 15:59:28:093
-0.459;11.339;-7.814;5.9656;6.4015;4.4402;-5.5161;6.1699;-11.4818;1.5642;-2.291;-0.9198;116.8966;21.81;-18.5;7.13;192.1;-38.49;-47.73;0.4;46.821;12.845108;77.66332;;3063.1360279499304;;85.55161;;0 / 23;274;2016-11-30 15:59:28:098
-0.459;11.339;-7.814;5.9656;6.4015;4.4402;-5.5161;6.1699;-11.4818;1.5642;-2.291;-0.9198;116.8966;21.81;-18.5;7.13;192.1;-38.49;-47.73;0.4;46.821;12.845108;77.66332;;3063.1360279499304;;85.55161;;0 / 23;280;2016-11-30 15:59:28:104
-0.459;11.339;-7.814;5.9656;6.4015;4.4402;-5.5161;6.1699;-11.4818;1.7688;-2.4778;-1.1705;116.8966;21.81;-18.5;7.13;192.1;-38.49;-47.73;0.4;46.821;12.845108;77.66332;;3063.1360279499304;;85.55161;;0 / 23;285;2016-11-30 15:59:28:109
-0.459;11.339;-7.814;5.9656;6.4015;4.4402;-5.5161;6.1699;-11.4818;1.7688;-2.4778;-1.1705;116.8966;21.81;-18.5;7.13;192.1;-38.49;-47.73;0.4;46.821;12.845108;77.66332;;3063.1360279499304;;85.55161;;0 / 23;290;2016-11-30 15:59:28:114
5.209;9.96;-3.524;6.0201;6.7011;3.8954;-1.8932;1.7298;-8.3355;1.8661;-2.5817;-1.2171;116.8966;22.5;-16.75;6.38;198.12;-40.72;-53.34;0.4;46.821;12.845108;77.66332;;3063.1360279499304;;85.55161;;0 / 23;295;2016-11-30 15:59:28:119
5.209;9.96;-3.524;6.0201;6.7011;3.8954;-1.8932;1.7298;-8.3355;1.8661;-2.5817;-1.2171;116.8966;22.5;-16.75;6.38;198.12;-40.72;-53.34;0.4;46.821;12.845108;77.66332;;3063.1360279499304;;85.55161;;0 / 23;300;2016-11-30 15:59:28:124
5.209;9.96;-3.524;6.0337;6.9735;3.3369;0.395;3.909;-7.1642;1.94;-2.6057;-1.3095;116.8966;24.31;-14.69;5.81;198.12;-40.72;-53.34;0.4;46.821;12.845108;77.66332;;3063.1360279499304;;85.55161;;0 / 23;304;2016-11-30 15:59:28:128
5.209;9.96;-3.524;6.0337;6.9735;3.3369;0.395;3.909;-7.1642;1.94;-2.6057;-1.3095;116.8966;24.31;-14.69;5.81;198.12;-40.72;-53.34;0.4;46.821;12.845108;77.66332;;3063.1360279499304;;85.55161;;0 / 23;309;2016-11-30 15:59:28:133
4.443;9.96;-4.137;6.0337;6.9735;3.3369;0.395;3.909;-7.1642;1.94;-2.6057;-1.3095;116.8966;24.31;-14.69;5.81;198.12;-40.72;-53.34;0.4;46.821;12.845108;77.66332;;3063.1360279499304;;85.55161;;0 / 23;315;2016-11-30 15:59:28:139
4.443;9.96;-4.137;6.0337;6.9735;3.3369;0.395;3.909;-7.1642;1.94;-2.6057;-1.3095;116.8966;24.31;-14.69;5.81;198.12;-40.72;-53.34;0.4;46.821;12.845108;77.66332;;3063.1360279499304;;85.55161;;0 / 23;320;2016-11-30 15:59:28:144
4.443;9.96;-4.137;6.0201;7.1233;3.0645;-1.5799;2.833;-7.1914;1.9485;-2.5313;-1.4009;116.8966;25.19;-13.69;5.69;198.12;-40.72;-53.34;0.4;46.821;12.845108;77.66332;;3063.1360279499304;;85.55161;;0 / 23;325;2016-11-30 15:59:28:149
4.443;9.96;-4.137;6.0201;7.1233;3.0645;-1.5799;2.833;-7.1914;1.9485;-2.5313;-1.4009;116.8966;25.19;-13.69;5.69;198.12;-40.72;-53.34;0.4;46.821;12.845108;77.66332;;3063.1360279499304;;85.55161;;0 / 23;329;2016-11-30 15:59:28:153
10.88;8.888;3.218;5.9384;7.3821;2.547;4.9441;1.4982;0.6674;1.7794;-2.1691;-1.3526;116.8966;25.44;-12.56;6.13;192.48;-46.52;-63.02;0.4;46.821;12.845108;77.66332;;3063.1360279499304;;85.55161;;0 / 23;334;2016-11-30 15:59:28:158
10.88;8.888;3.218;5.9384;7.3821;2.547;4.9441;1.4982;0.6674;1.7794;-2.1691;-1.3526;116.8966;25.44;-12.56;6.13;192.48;-46.52;-63.02;0.4;46.821;12.845108;77.66332;;3063.1360279499304;;85.55161;;0 / 23;340;2016-11-30 15:59:28:164
10.88;8.888;3.218;5.9384;7.3821;2.547;4.9441;1.4982;0.6674;1.7794;-2.1691;-1.3526;116.8966;25.44;-12.56;6.13;192.48;-46.52;-63.02;0.4;46.821;12.845108;77.66332;;3063.1360279499304;;85.55161;;0 / 23;345;2016-11-30 15:59:28:169
10.88;8.888;3.218;5.9384;7.3821;2.547;4.9441;1.4982;0.6674;1.7794;-2.1691;-1.3526;116.8966;25.44;-12.56;6.13;192.48;-46.52;-63.02;0.4;46.821;12.845108;77.66332;;3063.1360279499304;;85.55161;;0 / 23;349;2016-11-30 15:59:28:173
10.266;8.581;2.911;5.9111;7.4638;2.329;11.2502;2.3427;3.1871;1.4879;-1.834;-1.009;116.8966;25.44;-12.19;6.13;192.48;-46.52;-63.02;0.4;46.821;12.845108;77.66332;;3063.1360279499304;;85.55161;;0 / 23;354;2016-11-30 15:59:28:178
10.266;8.581;2.911;5.9111;7.4638;2.329;11.2502;2.3427;3.1871;1.4879;-1.834;-1.009;116.8966;25.44;-12.19;6.13;192.48;-46.52;-63.02;0.4;46.821;12.845108;77.66332;;3063.1360279499304;;85.55161;;0 / 23;360;2016-11-30 15:59:28:184
10.266;8.581;2.911;5.9111;7.4638;2.329;11.2502;2.3427;3.1871;1.0625;-1.3352;-0.658;116.8966;25.44;-12.19;6.13;192.48;-46.52;-63.02;0.4;46.821;12.845108;77.66332;;3063.1360279499304;;85.55161;;0 / 23;365;2016-11-30 15:59:28:189
3.371;7.048;6.742;5.9111;7.4638;2.329;11.2502;2.3427;3.1871;1.0625;-1.3352;-0.658;116.8966;25.44;-12.19;6.13;192.48;-46.52;-63.02;0.4;46.821;12.845108;77.66332;;3063.1360279499304;;85.55161;;0 / 23;370;2016-11-30 15:59:28:194
3.371;7.048;6.742;5.8567;7.6409;1.8932;-2.4925;-0.5993;4.8488;0.627;-0.9253;-0.4838;116.8966;25.63;-12.0;6.56;186.12;-49.59;-68.5;0.4;46.821;12.845108;77.66332;;3063.1360279499304;;85.55161;;0 / 23;374;2016-11-30 15:59:28:198
0.612;6.589;3.217;5.8567;7.6409;1.8932;-2.4925;-0.5993;4.8488;0.627;-0.9253;-0.4838;116.8966;25.63;-12.0;6.56;186.12;-49.59;-68.5;0.4;46.821;12.845108;77.66332;;3063.1360279499304;;85.55161;;0 / 23;380;2016-11-30 15:59:28:204
0.612;6.589;3.217;5.8567;7.6409;1.8932;-2.4925;-0.5993;4.8488;0.3733;-0.7148;-0.4868;116.8966;25.63;-12.0;6.56;186.12;-49.59;-68.5;0.4;46.821;12.845108;77.66332;;3063.1360279499304;;85.55161;;0 / 23;385;2016-11-30 15:59:28:209
0.612;6.589;3.217;5.8567;7.6409;1.8932;-2.4925;-0.5993;4.8488;0.3733;-0.7148;-0.4868;116.8966;25.63;-12.0;6.56;186.12;-49.59;-68.5;0.4;46.821;12.845108;77.66332;;3063.1360279499304;;85.55161;;0 / 23;390;2016-11-30 15:59:28:214
0.612;6.589;3.217;5.7477;7.7498;1.757;-21.2338;-1.9341;-4.0452;0.3733;-0.7148;-0.4868;116.8966;26.0;-10.81;6.13;186.12;-49.59;-68.5;0.4;46.821;12.845108;77.66332;;3063.1360279499304;;85.55161;;0 / 23;394;2016-11-30 15:59:28:218
-16.089;5.976;-2.145;5.7477;7.7498;1.757;-21.2338;-1.9341;-4.0452;0.3733;-0.7148;-0.4868;116.8966;26.0;-10.81;6.13;186.12;-49.59;-68.5;0.4;46.821;12.845108;77.66332;;3063.1360279499304;;85.55161;;0 / 23;400;2016-11-30 15:59:28:224
-16.089;5.976;-2.145;5.6115;7.8724;1.6889;-25.0747;-1.4437;-4.9032;0.6059;-0.5746;-2.1555;116.8966;26.0;-10.81;6.13;186.12;-49.59;-68.5;0.4;46.821;12.845108;77.66332;;3063.1360279499304;;85.55161;;0 / 23;405;2016-11-30 15:59:28:229
-16.089;5.976;-2.145;5.6115;7.8724;1.6889;-25.0747;-1.4437;-4.9032;0.6059;-0.5746;-2.1555;116.8966;26.0;-10.81;6.13;186.12;-49.59;-68.5;0.4;46.821;12.845108;77.66332;;3063.1360279499304;;85.55161;;0 / 23;409;2016-11-30 15:59:28:233
-16.089;5.976;-2.145;5.6115;7.8724;1.6889;-25.0747;-1.4437;-4.9032;0.6059;-0.5746;-2.1555;116.8966;26.0;-10.81;6.13;186.12;-49.59;-68.5;0.4;46.821;12.845108;77.66332;;3063.1360279499304;;85.55161;;0 / 23;414;2016-11-30 15:59:28:238
-16.089;5.976;-2.145;5.6115;7.8724;1.6889;-25.0747;-1.4437;-4.9032;0.6059;-0.5746;-2.1555;116.8966;26.0;-10.81;6.13;186.12;-49.59;-68.5;0.4;46.821;12.845108;77.66332;;3063.1360279499304;;85.55161;;0 / 23;419;2016-11-30 15:59:28:243
2.145;7.048;1.072;5.3391;8.104;1.4846;-3.2007;-1.0624;-0.4222;0.9651;-0.8784;-1.8528;116.8966;27.69;-9.0;7.13;182.75;-53.34;-73.25;0.4;46.821;12.845108;77.66332;;3063.1360279499304;;85.55161;;0 / 23;425;2016-11-30 15:59:28:249
2.145;7.048;1.072;5.3391;8.104;1.4846;-3.2007;-1.0624;-0.4222;0.9651;-0.8784;-1.8528;116.8966;27.69;-9.0;7.13;182.75;-53.34;-73.25;0.4;46.821;12.845108;77.66332;;3063.1360279499304;;85.55161;;0 / 23;430;2016-11-30 15:59:28:254
2.145;7.048;1.072;5.3391;8.104;1.4846;-3.2007;-1.0624;-0.4222;1.0134;-0.8994;-1.9125;116.8966;27.69;-9.0;7.13;182.75;-53.34;-73.25;0.4;46.821;12.845108;77.66332;;3063.1360279499304;;85.55161;;0 / 23;434;2016-11-30 15:59:28:258
2.145;7.048;1.072;5.3391;8.104;1.4846;-3.2007;-1.0624;-0.4222;1.0134;-0.8994;-1.9125;116.8966;27.69;-9.0;7.13;182.75;-53.34;-73.25;0.4;46.821;12.845108;77.66332;;3063.1360279499304;;85.55161;;0 / 23;439;2016-11-30 15:59:28:263
-3.064;10.113;1.532;5.0258;8.3355;1.2258;-8.5398;0.395;0.4495;1.0134;-0.8994;-1.9125;116.8966;28.56;-8.5;7.25;182.75;-53.34;-73.25;0.4;46.821;12.845108;77.66332;;3063.1360279499304;;85.55161;;0 / 23;445;2016-11-30 15:59:28:269
-3.064;10.113;1.532;5.0258;8.3355;1.2258;-8.5398;0.395;0.4495;1.0134;-0.8994;-1.9125;116.8966;28.56;-8.5;7.25;182.75;-53.34;-73.25;0.4;46.821;12.845108;77.66332;;3063.1360279499304;;85.55161;;0 / 23;449;2016-11-30 15:59:28:273
-3.064;10.113;1.532;5.0258;8.3355;1.2258;-8.5398;0.395;0.4495;1.477;-1.0276;-2.9352;116.8966;28.56;-8.5;7.25;182.75;-53.34;-73.25;0.4;46.821;12.845108;77.66332;;3063.1360279499304;;85.55161;;0 / 23;454;2016-11-30 15:59:28:278
0.613;11.8;0.767;5.0258;8.3355;1.2258;-8.5398;0.395;0.4495;1.477;-1.0276;-2.9352;116.8966;28.56;-8.5;7.25;182.75;-53.34;-73.25;0.4;46.821;12.845108;77.66332;;3063.1360279499304;;85.55161;;0 / 23;460;2016-11-30 15:59:28:284
0.613;11.8;0.767;4.3584;8.7577;0.7491;-3.7592;3.0373;0.0136;1.4508;-0.9626;-3.132;116.8966;30.13;-5.81;7.44;180.6;-58.18;-76.29;0.4;46.821;12.845108;77.66332;;3063.1360279499304;;85.55161;;0 / 23;465;2016-11-30 15:59:28:289
0.306;12.718;-1.225;4.3584;8.7577;0.7491;-3.7592;3.0373;0.0136;1.4508;-0.9626;-3.132;116.8966;30.13;-5.81;7.44;180.6;-58.18;-76.29;0.4;46.821;12.845108;77.66332;;3063.1360279499304;;85.55161;;0 / 23;470;2016-11-30 15:59:28:294
0.306;12.718;-1.225;4.3584;8.7577;0.7491;-3.7592;3.0373;0.0136;1.4508;-0.9626;-3.132;116.8966;30.13;-5.81;7.44;180.6;-58.18;-76.29;0.4;46.821;12.845108;77.66332;;3063.1360279499304;;85.55161;;0 / 23;475;2016-11-30 15:59:28:299
0.306;12.718;-1.225;4.3584;8.7577;0.7491;-3.7592;3.0373;0.0136;1.4508;-0.9626;-3.132;116.8966;30.13;-5.81;7.44;180.6;-58.18;-76.29;0.4;46.821;12.845108;77.66332;;3063.1360279499304;;85.55161;;0 / 23;479;2016-11-30 15:59:28:303
0.306;12.718;-1.225;3.8545;9.0029;0.5448;0.1226;5.4072;2.3563;0.7448;-0.5277;-3.0328;116.8966;30.81;-4.56;7.88;180.6;-58.18;-76.29;0.4;46.821;12.845108;77.66332;;3063.1360279499304;;85.55161;;0 / 23;484;2016-11-30 15:59:28:308
0.306;12.718;-1.225;3.8545;9.0029;0.5448;0.1226;5.4072;2.3563;0.7448;-0.5277;-3.0328;116.8966;30.81;-4.56;7.88;180.6;-58.18;-76.29;0.4;46.821;12.845108;77.66332;;3063.1360279499304;;85.55161;;0 / 23;490;2016-11-30 15:59:28:314
4.903;14.71;3.83;3.6502;9.0846;0.5312;1.5527;5.4753;3.7592;0.1083;-0.2182;-2.3456;116.8966;30.81;-4.56;7.88;180.6;-58.18;-76.29;0.4;57.421;12.845108;77.66332;;3063.1360279499304;;85.55161;;0 / 23;495;2016-11-30 15:59:28:319
4.903;14.71;3.83;3.6502;9.0846;0.5312;1.5527;5.4753;3.7592;0.1083;-0.2182;-2.3456;116.8966;30.81;-4.56;7.88;180.6;-58.18;-76.29;0.4;57.421;12.845108;77.66332;;3063.1360279499304;;85.55161;;0 / 23;500;2016-11-30 15:59:28:324
4.903;14.71;3.83;3.6502;9.0846;0.5312;1.5527;5.4753;3.7592;0.1083;-0.2182;-2.3456;116.8966;30.81;-4.56;7.88;180.6;-58.18;-76.29;0.4;57.421;12.845108;77.66332;;3063.1360279499304;;85.55161;;0 / 23;505;2016-11-30 15:59:28:329
4.903;14.71;3.83;3.6502;9.0846;0.5312;1.5527;5.4753;3.7592;0.1083;-0.2182;-2.3456;116.8966;30.81;-4.56;7.88;180.6;-58.18;-76.29;0.4;57.421;12.845108;77.66332;;3063.1360279499304;;85.55161;;0 / 23;509;2016-11-30 15:59:28:333
4.903;14.71;3.83;3.3233;9.2072;0.5993;1.7298;3.514;-0.7491;-0.4587;0.0401;-1.8061;116.8966;30.38;-3.81;7.75;173.18;-67.9;-81.72;0.4;57.421;12.845108;77.66332;;3063.1360279499304;;85.55161;;0 / 23;514;2016-11-30 15:59:28:338
4.291;11.8;-2.603;3.3233;9.2072;0.5993;1.7298;3.514;-0.7491;-0.4587;0.0401;-1.8061;116.8966;30.38;-3.81;7.75;173.18;-67.9;-81.72;0.4;57.421;12.845108;77.66332;;3063.1360279499304;;85.55161;;0 / 23;520;2016-11-30 15:59:28:344
4.291;11.8;-2.603;3.1871;9.2617;0.6401;-0.4358;1.7706;-5.3799;-0.4091;0.0461;-1.6556;116.8966;30.38;-3.81;7.75;173.18;-67.9;-81.72;0.4;57.421;12.845108;77.66332;;3063.1360279499304;;85.55161;;0 / 23;525;2016-11-30 15:59:28:349
0.766;10.573;-3.984;3.1871;9.2617;0.6401;-0.4358;1.7706;-5.3799;-0.4091;0.0461;-1.6556;116.8966;30.38;-3.81;7.75;173.18;-67.9;-81.72;0.4;57.421;12.845108;77.66332;;3063.1360279499304;;85.55161;;0 / 23;529;2016-11-30 15:59:28:353
0.766;10.573;-3.984;3.1871;9.2617;0.6401;-0.4358;1.7706;-5.3799;-0.3417;0.0935;-1.5757;116.8966;30.38;-3.81;7.75;173.18;-67.9;-81.72;0.4;57.421;12.845108;77.66332;;3063.1360279499304;;85.55161;;0 / 23;534;2016-11-30 15:59:28:358
0.766;10.573;-3.984;3.1871;9.2617;0.6401;-0.4358;1.7706;-5.3799;-0.3417;0.0935;-1.5757;116.8966;30.38;-3.81;7.75;173.18;-67.9;-81.72;0.4;57.421;12.845108;77.66332;;3063.1360279499304;;85.55161;;0 / 23;540;2016-11-30 15:59:28:364
0.306;10.266;-3.677;2.9147;9.3434;0.6946;-2.7649;1.076;-4.3721;-0.3417;0.0935;-1.5757;116.8966;30.0;-2.62;8.88;173.18;-67.9;-81.72;0.4;57.421;12.845108;77.66332;;3063.1360279499304;;85.55161;;0 / 23;545;2016-11-30 15:59:28:369
0.306;10.266;-3.677;2.9147;9.3434;0.6946;-2.7649;1.076;-4.3721;-0.3417;0.0935;-1.5757;116.8966;30.0;-2.62;8.88;173.18;-67.9;-81.72;0.4;57.421;12.845108;77.66332;;3063.1360279499304;;85.55161;;0 / 23;549;2016-11-30 15:59:28:373
0.306;10.266;-3.677;2.9147;9.3434;0.6946;-2.7649;1.076;-4.3721;-0.2045;0.2454;-1.5776;116.8966;30.0;-2.62;8.88;173.18;-67.9;-81.72;0.4;57.421;12.845108;77.66332;;3063.1360279499304;;85.55161;;0 / 23;555;2016-11-30 15:59:28:379
0.459;9.807;-6.435;2.9147;9.3434;0.6946;-2.7649;1.076;-4.3721;-0.2045;0.2454;-1.5776;116.8966;30.0;-2.62;8.88;173.18;-67.9;-81.72;0.4;57.421;12.845108;77.66332;;3063.1360279499304;;85.55161;;0 / 23;560;2016-11-30 15:59:28:384
0.459;9.807;-6.435;2.5742;9.4388;0.7082;-1.9749;-0.0953;-6.2244;-0.2045;0.2454;-1.5776;116.8966;29.0;-2.69;10.5;172.5;-72.22;-76.6;0.4;57.421;12.845108;77.66332;;3063.1360279499304;;85.55161;;0 / 23;564;2016-11-30 15:59:28:388
0.459;9.807;-6.435;2.5742;9.4388;0.7082;-1.9749;-0.0953;-6.2244;0.7006;0.2683;-2.7372;62.069;29.0;-2.69;10.5;172.5;-72.22;-76.6;0.4;57.421;12.845108;77.66332;;3063.1360279499304;;85.55161;;0 / 23;572;2016-11-30 15:59:28:396
0.459;9.807;-6.435;2.5742;9.4388;0.7082;-1.9749;-0.0953;-6.2244;0.7006;0.2683;-2.7372;62.069;29.0;-2.69;10.5;172.5;-72.22;-76.6;0.4;57.421;12.845108;77.66332;;3063.1360279499304;;85.55161;;0 / 23;574;2016-11-30 15:59:28:398
1.072;10.113;-2.604;2.5742;9.4388;0.7082;-1.9749;-0.0953;-6.2244;0.7006;0.2683;-2.7372;62.069;29.0;-2.69;10.5;172.5;-72.22;-76.6;0.4;57.421;12.845108;77.66332;;3063.1360279499304;;85.55161;;0 / 23;580;2016-11-30 15:59:28:404
1.072;10.113;-2.604;2.0839;9.575;0.572;-1.0215;0.5312;-3.1735;0.9779;0.3062;-2.7931;62.069;28.88;-2.69;11.69;172.5;-72.22;-76.6;0.4;57.421;12.845108;77.66332;;3063.1360279499304;;85.55161;;0 / 23;585;2016-11-30 15:59:28:409
1.072;10.113;-2.604;2.0839;9.575;0.572;-1.0215;0.5312;-3.1735;0.9779;0.3062;-2.7931;62.069;28.88;-2.69;11.69;172.5;-72.22;-76.6;0.4;57.421;12.845108;77.66332;;3063.1360279499304;;85.55161;;0 / 23;590;2016-11-30 15:59:28:414
1.072;10.113;-2.604;2.0839;9.575;0.572;-1.0215;0.5312;-3.1735;1.2345;0.3188;-2.7846;62.069;28.88;-2.69;11.69;172.5;-72.22;-76.6;0.4;57.421;12.845108;77.66332;;3063.1360279499304;;85.55161;;0 / 23;594;2016-11-30 15:59:28:418
1.992;9.653;-0.306;2.0839;9.575;0.572;-1.0215;0.5312;-3.1735;1.2345;0.3188;-2.7846;62.069;28.88;-2.69;11.69;172.5;-72.22;-76.6;0.4;57.421;12.845108;77.66332;;3063.1360279499304;;85.55161;;0 / 23;599;2016-11-30 15:59:28:423
1.992;9.653;-0.306;1.5936;9.6703;0.3405;-0.3677;-0.3269;-0.9398;1.2345;0.3188;-2.7846;62.069;28.94;-1.94;12.63;171.11;-77.28;-74.65;0.4;57.421;12.845108;77.66332;;3063.1360279499304;;85.55161;;0 / 23;605;2016-11-30 15:59:28:429
1.992;9.653;-0.306;1.5936;9.6703;0.3405;-0.3677;-0.3269;-0.9398;1.2345;0.3188;-2.7846;62.069;28.94;-1.94;12.63;171.11;-77.28;-74.65;0.4;57.421;12.845108;77.66332;;3063.1360279499304;;85.55161;;0 / 23;610;2016-11-30 15:59:28:434
1.992;9.653;-0.306;1.5936;9.6703;0.3405;-0.3677;-0.3269;-0.9398;1.3753;0.3905;-2.3074;62.069;28.94;-1.94;12.63;171.11;-77.28;-74.65;0.4;57.421;12.845108;77.66332;;3063.1360279499304;;85.55161;;0 / 23;615;2016-11-30 15:59:28:439
1.992;9.653;-0.306;1.5936;9.6703;0.3405;-0.3677;-0.3269;-0.9398;1.3753;0.3905;-2.3074;62.069;28.94;-1.94;12.63;171.11;-77.28;-74.65;0.4;57.421;12.845108;77.66332;;3063.1360279499304;;85.55161;;0 / 23;619;2016-11-30 15:59:28:443
-0.919;5.822;0.459;1.2667;9.7248;0.1089;-0.8172;-3.909;-0.8717;1.3534;0.4663;-1.3889;62.069;29.19;-2.25;14.0;171.11;-77.28;-74.65;0.4;57.421;12.845108;77.66332;;3063.1360279499304;;85.55161;;0 / 23;625;2016-11-30 15:59:28:449
-0.919;5.822;0.459;1.2667;9.7248;0.1089;-0.8172;-3.909;-0.8717;1.3534;0.4663;-1.3889;62.069;29.19;-2.25;14.0;171.11;-77.28;-74.65;0.4;57.421;12.845108;77.66332;;3063.1360279499304;;85.55161;;0 / 23;630;2016-11-30 15:59:28:454
-0.919;5.822;0.459;1.2258;9.7384;0.0136;-2.1384;-3.9226;0.4358;0.9534;0.5173;-0.3414;62.069;29.0;-2.44;14.38;171.11;-77.28;-74.65;0.0;57.421;12.845108;77.66332;;3063.1360279499304;;85.55161;;0 / 23;635;2016-11-30 15:59:28:459
-0.919;5.822;0.459;1.2258;9.7384;0.0136;-2.1384;-3.9226;0.4358;0.9534;0.5173;-0.3414;62.069;29.0;-2.44;14.38;171.11;-77.28;-74.65;0.0;57.421;12.845108;77.66332;;3063.1360279499304;;85.55161;;0 / 23;639;2016-11-30 15:59:28:463
0.153;7.202;-3.83;1.2258;9.7384;0.0136;-2.1384;-3.9226;0.4358;0.9534;0.5173;-0.3414;62.069;29.0;-2.44;14.38;171.11;-77.28;-74.65;0.0;57.421;12.845108;77.66332;;3063.1360279499304;;85.55161;;0 / 23;645;2016-11-30 15:59:28:469
0.153;7.202;-3.83;1.2258;9.7384;0.0136;-2.1384;-3.9226;0.4358;0.9534;0.5173;-0.3414;62.069;29.0;-2.44;14.38;171.11;-77.28;-74.65;0.0;57.421;12.845108;77.66332;;3063.1360279499304;;85.55161;;0 / 23;650;2016-11-30 15:59:28:474
0.153;7.202;-3.83;1.1577;9.7384;-0.1634;-0.5584;-2.6968;-3.514;0.9466;0.5547;-0.3095;62.069;29.0;-2.5;14.63;153.3;-82.83;-89.36;0.0;57.421;12.845108;77.66332;;3063.1360279499304;;85.55161;;0 / 23;655;2016-11-30 15:59:28:479
0.0;6.435;-3.064;1.1577;9.7384;-0.1634;-0.5584;-2.6968;-3.514;0.9466;0.5547;-0.3095;62.069;29.0;-2.5;14.63;153.3;-82.83;-89.36;0.0;57.421;12.845108;77.66332;;3063.1360279499304;;85.55161;;0 / 23;659;2016-11-30 15:59:28:483
0.0;6.435;-3.064;1.1577;9.7384;-0.1634;-0.5584;-2.6968;-3.514;0.9831;0.5577;-0.2852;62.069;29.0;-2.5;14.63;153.3;-82.83;-89.36;0.0;57.421;12.845108;77.66332;;3063.1360279499304;;85.55161;;0 / 23;664;2016-11-30 15:59:28:488
0.154;6.436;-1.071;1.1577;9.7384;-0.1634;-0.5584;-2.6968;-3.514;0.9831;0.5577;-0.2852;62.069;29.0;-2.5;14.63;153.3;-82.83;-89.36;0.0;57.421;12.845108;77.66332;;3063.1360279499304;;85.55161;;0 / 23;670;2016-11-30 15:59:28:494
0.154;6.436;-1.071;1.1168;9.7384;-0.3541;-0.967;-3.3097;-0.7082;0.9831;0.5577;-0.2852;62.069;29.69;-2.56;15.06;153.3;-82.83;-89.36;0.0;57.421;12.845108;77.66332;;3063.1360279499304;;85.55161;;0 / 23;675;2016-11-30 15:59:28:499
0.154;6.436;-1.071;1.1168;9.7384;-0.3541;-0.967;-3.3097;-0.7082;0.9831;0.5577;-0.2852;62.069;29.69;-2.56;15.06;153.3;-82.83;-89.36;0.0;57.421;12.845108;77.66332;;3063.1360279499304;;85.55161;;0 / 23;679;2016-11-30 15:59:28:503
1.225;7.814;-2.911;1.1168;9.7384;-0.3541;-0.967;-3.3097;-0.7082;1.1707;0.6894;-0.1481;62.069;29.69;-2.56;15.06;153.3;-82.83;-89.36;0.0;57.421;12.845108;77.66332;;3063.1360279499304;;85.55161;;0 / 23;685;2016-11-30 15:59:28:509
1.225;7.814;-2.911;1.1168;9.7384;-0.3541;-0.967;-3.3097;-0.7082;1.1707;0.6894;-0.1481;62.069;29.69;-2.56;15.06;153.3;-82.83;-89.36;0.0;57.421;12.845108;77.66332;;3063.1360279499304;;85.55161;;0 / 23;690;2016-11-30 15:59:28:514
1.225;7.814;-2.911;1.1032;9.7384;-0.5584;0.1226;-1.471;-3.5685;1.2572;0.7006;0.0428;62.069;30.19;-3.19;14.94;136.06;-83.14;-107.59;0.0;57.421;12.845108;77.66332;;3063.1360279499304;;85.55161;;0 / 23;695;2016-11-30 15:59:28:519
3.677;11.186;-1.379;1.1032;9.7384;-0.5584;0.1226;-1.471;-3.5685;1.2572;0.7006;0.0428;62.069;30.19;-3.19;14.94;136.06;-83.14;-107.59;0.0;57.421;12.845108;77.66332;;3063.1360279499304;;85.55161;;0 / 23;700;2016-11-30 15:59:28:524
3.677;11.186;-1.379;1.1032;9.7384;-0.5584;0.1226;-1.471;-3.5685;1.3134;0.7153;0.1841;62.069;30.19;-3.19;14.94;136.06;-83.14;-107.59;0.0;57.421;12.845108;77.66332;;3063.1360279499304;;85.55161;;0 / 23;704;2016-11-30 15:59:28:528
3.677;11.186;-1.379;1.1032;9.7384;-0.5584;0.1226;-1.471;-3.5685;1.3134;0.7153;0.1841;62.069;30.19;-3.19;14.94;136.06;-83.14;-107.59;0.0;57.421;12.845108;77.66332;;3063.1360279499304;;85.55161;;0 / 23;710;2016-11-30 15:59:28:534
3.677;11.186;-1.379;1.1441;9.7112;-0.7763;2.6832;2.3971;-0.1362;1.2787;0.7401;0.2454;62.069;30.75;-2.81;15.31;136.06;-83.14;-107.59;0.0;57.421;12.845108;77.66332;;3063.1360279499304;;85.55161;;0 / 23;715;2016-11-30 15:59:28:539
3.83;13.791;-1.838;1.1441;9.7112;-0.7763;2.6832;2.3971;-0.1362;1.2787;0.7401;0.2454;62.069;30.75;-2.81;15.31;136.06;-83.14;-107.59;0.0;57.421;12.845108;77.66332;;3063.1360279499304;;85.55161;;0 / 23;719;2016-11-30 15:59:28:543
3.83;13.791;-1.838;1.1441;9.7112;-0.7763;2.6832;2.3971;-0.1362;1.2787;0.7401;0.2454;62.069;30.75;-2.81;15.31;136.06;-83.14;-107.59;0.0;57.421;12.845108;77.66332;;3063.1360279499304;;85.55161;;0 / 23;724;2016-11-30 15:59:28:548
3.83;13.791;-1.838;1.1441;9.7112;-0.7763;2.6832;2.3971;-0.1362;1.2787;0.7401;0.2454;62.069;30.75;-2.81;15.31;136.06;-83.14;-107.59;0.0;57.421;12.845108;77.66332;;3063.1360279499304;;85.55161;;0 / 23;730;2016-11-30 15:59:28:554
3.83;13.791;-1.838;1.2122;9.6839;-1.0079;2.7649;4.1133;-0.9806;1.3897;0.7208;0.2877;62.069;31.25;-3.31;14.94;120.38;-81.9;-124.16;0.0;57.421;12.845108;77.66332;;3063.1360279499304;;85.55161;;0 / 23;735;2016-11-30 15:59:28:559
2.911;10.879;-2.758;1.2122;9.6839;-1.0079;2.7649;4.1133;-0.9806;1.3897;0.7208;0.2877;62.069;31.25;-3.31;14.94;120.38;-81.9;-124.16;0.0;57.421;12.845108;77.66332;;3063.1360279499304;;85.55161;;0 / 23;739;2016-11-30 15:59:28:563
2.911;10.879;-2.758;1.2122;9.6839;-1.0079;2.7649;4.1133;-0.9806;1.5146;0.6763;0.2345;62.069;31.25;-3.31;14.94;120.38;-81.9;-124.16;0.0;57.421;12.845108;77.66332;;3063.1360279499304;;85.55161;;0 / 23;748;2016-11-30 15:59:28:572
2.911;10.879;-2.758;1.2122;9.6839;-1.0079;2.7649;4.1133;-0.9806;1.5146;0.6763;0.2345;62.069;31.25;-3.31;14.94;120.38;-81.9;-124.16;0.0;57.421;12.845108;77.66332;;3063.1360279499304;;85.55161;;0 / 23;750;2016-11-30 15:59:28:574
2.911;10.879;-2.758;1.2667;9.6431;-1.2667;2.0975;0.1634;-1.4846;1.5473;0.5817;0.1876;62.069;31.5;-4.12;14.38;120.38;-81.9;-124.16;0.0;57.421;12.845108;77.66332;;3063.1360279499304;;85.55161;;0 / 23;754;2016-11-30 15:59:28:578
2.911;10.879;-2.758;1.2667;9.6431;-1.2667;2.0975;0.1634;-1.4846;1.5473;0.5817;0.1876;62.069;31.5;-4.12;14.38;120.38;-81.9;-124.16;0.0;57.421;12.845108;77.66332;;3063.1360279499304;;85.55161;;0 / 23;776;2016-11-30 15:59:28:600
2.911;10.879;-2.758;1.2667;9.6431;-1.2667;2.0975;0.1634;-1.4846;1.5473;0.5817;0.1876;62.069;31.5;-4.12;14.38;120.38;-81.9;-124.16;0.0;57.421;12.845108;77.66332;;3063.1360279499304;;85.55161;;0 / 23;777;2016-11-30 15:59:28:601
2.911;10.879;-2.758;1.2667;9.6431;-1.2667;2.0975;0.1634;-1.4846;1.5473;0.5817;0.1876;62.069;31.5;-4.12;14.38;120.38;-81.9;-124.16;0.0;57.421;12.845108;77.66332;;3063.1360279499304;;85.55161;;0 / 23;778;2016-11-30 15:59:28:602
2.911;10.879;-2.758;1.2667;9.6431;-1.2667;2.0975;0.1634;-1.4846;1.5473;0.5817;0.1876;62.069;31.5;-4.12;14.38;120.38;-81.9;-124.16;0.0;57.421;12.845108;77.66332;;3063.1360279499304;;85.55161;;0 / 23;778;2016-11-30 15:59:28:602
2.911;10.879;-2.758;1.2667;9.6431;-1.2667;2.0975;0.1634;-1.4846;1.5473;0.5817;0.1876;62.069;31.5;-4.12;14.38;120.38;-81.9;-124.16;0.0;57.421;12.845108;77.66332;;3063.1360279499304;;85.55161;;0 / 23;779;2016-11-30 15:59:28:603
-0.459;9.807;0.612;1.2939;9.6158;-1.4846;-1.7434;0.1907;2.0839;1.1849;0.4404;0.1364;62.069;32.31;-4.69;13.13;113.93;-79.48;-135.0;0.0;57.421;12.845108;77.66332;;3063.1360279499304;;85.55161;;0 / 23;785;2016-11-30 15:59:28:609
-0.459;9.807;0.612;1.2939;9.6158;-1.4846;-1.7434;0.1907;2.0839;1.1849;0.4404;0.1364;62.069;32.31;-4.69;13.13;113.93;-79.48;-135.0;0.0;57.421;12.845108;77.66332;;3063.1360279499304;;85.55161;;0 / 23;790;2016-11-30 15:59:28:614
-0.459;9.807;0.612;1.2939;9.6158;-1.4846;-1.7434;0.1907;2.0839;-0.5029;0.3785;-0.1514;62.069;32.31;-4.69;13.13;113.93;-79.48;-135.0;0.0;57.421;12.845108;77.66332;;3063.1360279499304;;85.55161;;0 / 23;795;2016-11-30 15:59:28:619
4.443;18.847;13.791;1.2939;9.6158;-1.4846;-1.7434;0.1907;2.0839;-0.5029;0.3785;-0.1514;62.069;32.31;-4.69;13.13;113.93;-79.48;-135.0;0.0;57.421;12.845108;77.66332;;3063.1360279499304;;85.55161;;0 / 23;799;2016-11-30 15:59:28:623
4.443;18.847;13.791;1.2939;9.6158;-1.4846;-1.7434;0.1907;2.0839;-0.5029;0.3785;-0.1514;62.069;32.31;-4.69;13.13;113.93;-79.48;-135.0;0.0;57.421;12.845108;77.66332;;3063.1360279499304;;85.55161;;0 / 23;805;2016-11-30 15:59:28:629
4.443;18.847;13.791;1.3075;9.6158;-1.4301;3.1326;9.2345;15.2273;-1.234;0.4006;0.0191;62.069;33.0;-6.12;10.44;113.93;-79.48;-135.0;0.0;57.421;12.845108;77.66332;;3063.1360279499304;;85.55161;;0 / 23;810;2016-11-30 15:59:28:634
4.443;18.847;13.791;1.3075;9.6158;-1.4301;3.1326;9.2345;15.2273;-1.234;0.4006;0.0191;62.069;33.0;-6.12;10.44;113.93;-79.48;-135.0;0.0;57.421;12.845108;77.66332;;3063.1360279499304;;85.55161;;0 / 23;815;2016-11-30 15:59:28:639
4.443;18.847;13.791;1.3075;9.6158;-1.4301;3.1326;9.2345;15.2273;-1.234;0.4006;0.0191;62.069;33.0;-6.12;10.44;113.93;-79.48;-135.0;0.0;57.421;12.845108;77.66332;;3063.1360279499304;;85.55161;;0 / 23;819;2016-11-30 15:59:28:643
6.895;18.234;8.581;1.362;9.6567;-1.076;5.5298;8.5807;9.6567;-2.1017;0.2416;0.3856;62.069;33.75;-5.19;7.81;120.12;-78.61;-137.56;0.0;57.421;12.845108;77.66332;;3063.1360279499304;;85.55161;;0 / 23;825;2016-11-30 15:59:28:649
6.895;18.234;8.581;1.362;9.6567;-1.076;5.5298;8.5807;9.6567;-2.1017;0.2416;0.3856;62.069;33.75;-5.19;7.81;120.12;-78.61;-137.56;0.0;58.316;12.845108;77.66332;;3063.1360279499304;;85.55161;;0 / 23;830;2016-11-30 15:59:28:654
6.895;18.234;8.581;1.362;9.6567;-1.076;5.5298;8.5807;9.6567;-2.2763;0.0676;0.3226;62.069;33.75;-5.19;7.81;120.12;-78.61;-137.56;0.0;58.316;12.845108;77.66332;;3063.1360279499304;;85.55161;;0 / 23;834;2016-11-30 15:59:28:658
2.604;12.718;5.056;1.362;9.6567;-1.076;5.5298;8.5807;9.6567;-2.2763;0.0676;0.3226;62.069;33.75;-5.19;7.81;120.12;-78.61;-137.56;0.0;58.316;12.845108;77.66332;;3063.1360279499304;;85.55161;;0 / 23;839;2016-11-30 15:59:28:663
2.604;12.718;5.056;1.362;9.6567;-1.076;5.5298;8.5807;9.6567;-2.2763;0.0676;0.3226;62.069;33.75;-5.19;7.81;120.12;-78.61;-137.56;0.0;58.316;12.845108;77.66332;;3063.1360279499304;;85.55161;;0 / 23;844;2016-11-30 15:59:28:668
2.604;12.718;5.056;1.4165;9.6839;-0.6674;1.185;3.0373;5.7204;-2.2392;-0.1143;0.2749;62.069;33.81;-4.0;6.81;120.12;-78.61;-137.56;0.0;58.316;12.845108;77.66332;;3063.1360279499304;;85.55161;;0 / 23;849;2016-11-30 15:59:28:673
0.612;8.887;0.0;1.4165;9.6839;-0.6674;1.185;3.0373;5.7204;-2.2392;-0.1143;0.2749;62.069;33.81;-4.0;6.81;120.12;-78.61;-137.56;0.0;58.316;12.845108;77.66332;;3063.1360279499304;;85.55161;;0 / 23;855;2016-11-30 15:59:28:679
0.612;8.887;0.0;1.4165;9.6839;-0.6674;1.185;3.0373;5.7204;-2.2392;-0.1143;0.2749;62.069;33.81;-4.0;6.81;120.12;-78.61;-137.56;0.0;58.316;12.845108;77.66332;;3063.1360279499304;;85.55161;;0 / 23;860;2016-11-30 15:59:28:684
0.612;8.887;0.0;1.4437;9.6975;-0.2996;-0.8444;-0.8172;0.2996;-2.0191;-0.4549;0.1707;62.069;34.0;-2.25;5.75;144.72;-80.82;-115.23;0.0;58.316;12.845108;77.66332;;3063.1360279499304;;85.55161;;0 / 23;864;2016-11-30 15:59:28:688
0.612;8.887;0.0;1.4437;9.6975;-0.2996;-0.8444;-0.8172;0.2996;-2.0191;-0.4549;0.1707;41.0;34.0;-2.25;5.75;144.72;-80.82;-115.23;0.0;58.316;12.845108;77.66332;;3063.1360279499304;;85.55161;;0 / 23;870;2016-11-30 15:59:28:694
-11.952;8.274;-5.669;1.4437;9.6975;-0.2996;-0.8444;-0.8172;0.2996;-2.0191;-0.4549;0.1707;41.0;34.0;-2.25;5.75;144.72;-80.82;-115.23;0.0;58.316;12.845108;77.66332;;3063.1360279499304;;85.55161;;0 / 23;875;2016-11-30 15:59:28:699
-11.952;8.274;-5.669;1.4437;9.6975;-0.2996;-0.8444;-0.8172;0.2996;-2.0191;-0.4549;0.1707;41.0;34.0;-2.25;5.75;144.72;-80.82;-115.23;0.0;58.316;12.845108;77.66332;;3063.1360279499304;;85.55161;;0 / 23;880;2016-11-30 15:59:28:704
-7.048;5.822;-6.435;1.3893;9.7112;-0.0136;-13.3477;-1.4437;-5.6523;-1.5923;-0.6234;-0.6992;41.0;34.31;-0.75;5.38;144.72;-80.82;-115.23;0.0;58.316;12.845108;77.66332;;3063.1360279499304;;85.55161;;0 / 23;884;2016-11-30 15:59:28:708
-7.048;5.822;-6.435;1.3893;9.7112;-0.0136;-13.3477;-1.4437;-5.6523;-1.5923;-0.6234;-0.6992;41.0;34.31;-0.75;5.38;144.72;-80.82;-115.23;0.0;58.316;12.845108;77.66332;;3063.1360279499304;;85.55161;;0 / 23;889;2016-11-30 15:59:28:713
-7.048;5.822;-6.435;1.3075;9.7248;0.0953;-8.3491;-3.909;-6.524;-1.1462;-0.6114;-0.7764;41.0;35.0;1.0;5.13;144.72;-80.82;-115.23;0.0;58.316;12.845108;77.66332;;3063.1360279499304;;85.55161;;0 / 23;895;2016-11-30 15:59:28:719
-7.048;5.822;-6.435;1.3075;9.7248;0.0953;-8.3491;-3.909;-6.524;-1.1462;-0.6114;-0.7764;41.0;35.0;1.0;5.13;144.72;-80.82;-115.23;0.0;58.316;12.845108;77.66332;;3063.1360279499304;;85.55161;;0 / 23;900;2016-11-30 15:59:28:724
-3.217;1.379;-3.984;1.3075;9.7248;0.0953;-8.3491;-3.909;-6.524;-1.1462;-0.6114;-0.7764;41.0;35.0;1.0;5.13;144.72;-80.82;-115.23;0.0;58.316;12.845108;77.66332;;3063.1360279499304;;85.55161;;0 / 23;905;2016-11-30 15:59:28:729
-3.217;1.379;-3.984;1.3075;9.7248;0.0953;-8.3491;-3.909;-6.524;-1.1462;-0.6114;-0.7764;41.0;35.0;1.0;5.13;144.72;-80.82;-115.23;0.0;58.316;12.845108;77.66332;;3063.1360279499304;;85.55161;;0 / 23;909;2016-11-30 15:59:28:733
-3.217;1.379;-3.984;1.2258;9.7384;0.1907;-5.5161;-15.4044;-0.4903;-0.8219;-0.5479;-0.5942;41.0;34.69;2.19;4.06;177.61;-82.32;-85.83;0.0;58.316;12.845108;77.66332;;3063.1360279499304;;85.55161;;0 / 23;915;2016-11-30 15:59:28:739
-3.217;1.379;-3.984;1.2258;9.7384;0.1907;-5.5161;-15.4044;-0.4903;-0.8219;-0.5479;-0.5942;41.0;34.69;2.19;4.06;177.61;-82.32;-85.83;0.0;58.316;12.845108;77.66332;;3063.1360279499304;;85.55161;;0 / 23;920;2016-11-30 15:59:28:744
-3.677;-8.427;3.677;1.2258;9.7384;0.1907;-5.5161;-15.4044;-0.4903;-0.8219;-0.5479;-0.5942;41.0;34.69;2.19;4.06;177.61;-82.32;-85.83;0.0;58.316;12.845108;77.66332;;3063.1360279499304;;85.55161;;0 / 23;925;2016-11-30 15:59:28:749
-3.677;-8.427;3.677;1.2258;9.7384;0.1907;-5.5161;-15.4044;-0.4903;-0.8219;-0.5479;-0.5942;41.0;34.69;2.19;4.06;177.61;-82.32;-85.83;0.0;58.316;12.845108;77.66332;;3063.1360279499304;;85.55161;;0 / 23;929;2016-11-30 15:59:28:753
-3.677;-8.427;3.677;1.0351;9.752;0.4767;-4.0997;-17.8696;3.8136;-1.2673;-0.6578;-0.7857;41.0;34.44;2.31;3.19;177.61;-82.32;-85.83;0.0;58.316;12.845108;77.66332;;3063.1360279499304;;85.55161;;0 / 23;935;2016-11-30 15:59:28:759
-1.225;-1.072;3.524;1.0351;9.752;0.4767;-4.0997;-17.8696;3.8136;-1.2673;-0.6578;-0.7857;41.0;34.44;2.31;3.19;177.61;-82.32;-85.83;0.4;58.316;12.845108;77.66332;;3063.1360279499304;;85.55161;;0 / 23;940;2016-11-30 15:59:28:764
-1.225;-1.072;3.524;1.0351;9.752;0.4767;-4.0997;-17.8696;3.8136;-1.5247;-0.7745;-0.9564;41.0;34.44;2.31;3.19;177.61;-82.32;-85.83;0.4;58.316;12.845108;77.66332;;3063.1360279499304;;85.55161;;0 / 23;945;2016-11-30 15:59:28:769
-1.225;-1.072;3.524;1.0351;9.752;0.4767;-4.0997;-17.8696;3.8136;-1.5247;-0.7745;-0.9564;41.0;34.44;2.31;3.19;177.61;-82.32;-85.83;0.4;58.316;12.845108;77.66332;;3063.1360279499304;;85.55161;;0 / 23;949;2016-11-30 15:59:28:773
2.604;0.306;2.758;1.0351;9.752;0.4767;-4.0997;-17.8696;3.8136;-1.5247;-0.7745;-0.9564;41.0;34.44;2.31;3.19;177.61;-82.32;-85.83;0.4;58.316;12.845108;77.66332;;3063.1360279499304;;85.55161;;0 / 23;954;2016-11-30 15:59:28:778
2.604;0.306;2.758;1.0351;9.752;0.4767;-4.0997;-17.8696;3.8136;-1.5247;-0.7745;-0.9564;41.0;34.44;2.31;3.19;177.61;-82.32;-85.83;0.4;58.316;12.845108;77.66332;;3063.1360279499304;;85.55161;;0 / 23;960;2016-11-30 15:59:28:784
2.604;0.306;2.758;1.0351;9.752;0.4767;-4.0997;-17.8696;3.8136;-1.5247;-0.7745;-0.9564;41.0;34.44;2.31;3.19;177.61;-82.32;-85.83;0.4;58.316;12.845108;77.66332;;3063.1360279499304;;85.55161;;0 / 23;965;2016-11-30 15:59:28:789
2.604;0.306;2.758;1.0351;9.752;0.4767;-4.0997;-17.8696;3.8136;-1.5247;-0.7745;-0.9564;41.0;34.44;2.31;3.19;177.61;-82.32;-85.83;0.4;58.316;12.845108;77.66332;;3063.1360279499304;;85.55161;;0 / 23;970;2016-11-30 15:59:28:794
2.604;0.306;2.758;1.0351;9.752;0.4767;-4.0997;-17.8696;3.8136;-1.5247;-0.7745;-0.9564;41.0;34.44;2.31;3.19;177.61;-82.32;-85.83;0.4;58.316;12.845108;77.66332;;3063.1360279499304;;85.55161;;0 / 23;974;2016-11-30 15:59:28:798
2.604;0.306;2.758;1.0351;9.752;0.4767;-4.0997;-17.8696;3.8136;-1.5247;-0.7745;-0.9564;41.0;34.44;2.31;3.19;177.61;-82.32;-85.83;0.4;58.316;12.845108;77.66332;;3063.1360279499304;;85.55161;;0 / 23;980;2016-11-30 15:59:28:804
2.604;0.306;2.758;1.0351;9.752;0.4767;-4.0997;-17.8696;3.8136;-1.5247;-0.7745;-0.9564;41.0;34.44;2.31;3.19;177.61;-82.32;-85.83;0.4;58.316;12.845108;77.66332;;3063.1360279499304;;85.55161;;0 / 23;985;2016-11-30 15:59:28:809
2.604;0.306;2.758;1.0351;9.752;0.4767;-4.0997;-17.8696;3.8136;-1.5247;-0.7745;-0.9564;41.0;34.44;2.31;3.19;177.61;-82.32;-85.83;0.4;58.316;12.845108;77.66332;;3063.1360279499304;;85.55161;;0 / 23;989;2016-11-30 15:59:28:813
2.604;0.306;2.758;1.0351;9.752;0.4767;-4.0997;-17.8696;3.8136;-1.5247;-0.7745;-0.9564;41.0;34.44;2.31;3.19;177.61;-82.32;-85.83;0.4;58.316;12.845108;77.66332;;3063.1360279499304;;85.55161;;0 / 23;995;2016-11-30 15:59:28:819
2.604;0.306;2.758;1.0351;9.752;0.4767;-4.0997;-17.8696;3.8136;-1.5247;-0.7745;-0.9564;41.0;34.44;2.31;3.19;177.61;-82.32;-85.83;0.4;58.316;12.845108;77.66332;;3063.1360279499304;;85.55161;;0 / 23;1000;2016-11-30 15:59:28:824
2.604;0.306;2.758;1.0351;9.752;0.4767;-4.0997;-17.8696;3.8136;-1.5247;-0.7745;-0.9564;41.0;34.44;2.31;3.19;177.61;-82.32;-85.83;0.4;58.316;12.845108;77.66332;;3063.1360279499304;;85.55161;;0 / 23;1004;2016-11-30 15:59:28:828
2.298;-0.612;1.225;0.8036;9.7384;0.8444;1.7979;-9.4388;1.9068;-2.1388;-1.1211;-1.2615;41.0;35.0;2.06;1.81;201.73;-83.33;-65.27;0.4;58.316;12.845108;77.66332;;3063.1360279499304;;85.55161;;0 / 23;1010;2016-11-30 15:59:28:834
2.298;-0.612;1.225;0.8036;9.7384;0.8444;1.7979;-9.4388;1.9068;-2.1388;-1.1211;-1.2615;41.0;35.0;2.06;1.81;201.73;-83.33;-65.27;0.4;58.316;12.845108;77.66332;;3063.1360279499304;;85.55161;;0 / 23;1015;2016-11-30 15:59:28:839
2.298;-0.612;1.225;0.8036;9.7384;0.8444;1.7979;-9.4388;1.9068;-2.1388;-1.1211;-1.2615;41.0;35.0;2.06;1.81;201.73;-83.33;-65.27;0.4;58.316;12.845108;77.66332;;3063.1360279499304;;85.55161;;0 / 23;1020;2016-11-30 15:59:28:844
2.298;-0.612;1.225;0.8036;9.7384;0.8444;1.7979;-9.4388;1.9068;-2.1388;-1.1211;-1.2615;41.0;35.0;2.06;1.81;201.73;-83.33;-65.27;0.4;58.316;12.845108;77.66332;;3063.1360279499304;;85.55161;;0 / 23;1025;2016-11-30 15:59:28:849
2.298;-0.612;1.225;0.8036;9.7384;0.8444;1.7979;-9.4388;1.9068;-2.1388;-1.1211;-1.2615;41.0;35.0;2.06;1.81;201.73;-83.33;-65.27;0.4;58.316;12.845108;77.66332;;3063.1360279499304;;85.55161;;0 / 23;1030;2016-11-30 15:59:28:854
4.29;19.46;-7.968;0.2179;9.575;2.1656;2.5333;8.8122;-5.0667;-1.2037;-1.2929;-0.477;41.0;34.38;-4.44;0.13;201.73;-83.33;-65.27;0.4;58.316;12.845108;77.66332;;3063.1360279499304;;85.55161;;0 / 23;1035;2016-11-30 15:59:28:859
4.29;19.46;-7.968;0.2179;9.575;2.1656;2.5333;8.8122;-5.0667;-1.2037;-1.2929;-0.477;41.0;34.38;-4.44;0.13;201.73;-83.33;-65.27;0.4;58.316;12.845108;77.66332;;3063.1360279499304;;85.55161;;0 / 23;1042;2016-11-30 15:59:28:866
4.29;19.46;-7.968;0.2315;9.5613;2.2065;2.6695;9.9018;-9.0983;-0.4148;-1.2654;-0.1833;41.0;34.13;-4.12;0.5;201.73;-83.33;-65.27;0.4;58.316;12.845108;77.66332;;3063.1360279499304;;85.55161;;0 / 23;1045;2016-11-30 15:59:28:869
4.29;19.46;-7.968;0.2315;9.5613;2.2065;2.6695;9.9018;-9.0983;-0.4148;-1.2654;-0.1833;41.0;34.13;-4.12;0.5;201.73;-83.33;-65.27;0.4;58.316;12.845108;77.66332;;3063.1360279499304;;85.55161;;0 / 23;1049;2016-11-30 15:59:28:873
4.29;19.46;-7.968;0.2315;9.5613;2.2065;2.6695;9.9018;-9.0983;-0.4148;-1.2654;-0.1833;41.0;34.13;-4.12;0.5;201.73;-83.33;-65.27;0.4;58.316;12.845108;77.66332;;3063.1360279499304;;85.55161;;0 / 23;1054;2016-11-30 15:59:28:878
4.29;19.46;-7.968;0.2315;9.5613;2.2065;2.6695;9.9018;-9.0983;-0.4148;-1.2654;-0.1833;41.0;34.13;-4.12;0.5;201.73;-83.33;-65.27;0.4;58.316;12.845108;77.66332;;3063.1360279499304;;85.55161;;0 / 23;1060;2016-11-30 15:59:28:884
4.29;19.46;-7.968;0.2315;9.5613;2.2065;2.6695;9.9018;-9.0983;-0.4148;-1.2654;-0.1833;41.0;34.13;-4.12;0.5;201.73;-83.33;-65.27;0.4;58.316;12.845108;77.66332;;3063.1360279499304;;85.55161;;0 / 23;1065;2016-11-30 15:59:28:889
4.29;19.46;-7.968;0.2315;9.5613;2.2065;2.6695;9.9018;-9.0983;-0.4148;-1.2654;-0.1833;41.0;34.13;-4.12;0.5;201.73;-83.33;-65.27;0.4;58.316;12.845108;77.66332;;3063.1360279499304;;85.55161;;0 / 23;1129;2016-11-30 15:59:28:953
4.29;19.46;-7.968;0.2315;9.5613;2.2065;2.6695;9.9018;-9.0983;-0.4148;-1.2654;-0.1833;41.0;34.13;-4.12;0.5;201.73;-83.33;-65.27;0.4;58.316;12.845108;77.66332;;3063.1360279499304;;85.55161;;0 / 23;1130;2016-11-30 15:59:28:954
4.29;19.46;-7.968;0.2315;9.5613;2.2065;2.6695;9.9018;-9.0983;-0.4148;-1.2654;-0.1833;41.0;34.13;-4.12;0.5;201.73;-83.33;-65.27;0.4;58.316;12.845108;77.66332;;3063.1360279499304;;85.55161;;0 / 23;1130;2016-11-30 15:59:28:954
4.29;19.46;-7.968;0.2315;9.5613;2.2065;2.6695;9.9018;-9.0983;-0.4148;-1.2654;-0.1833;41.0;34.13;-4.12;0.5;201.73;-83.33;-65.27;0.4;58.316;12.845108;77.66332;;3063.1360279499304;;85.55161;;0 / 23;1131;2016-11-30 15:59:28:955
4.29;19.46;-7.968;0.2315;9.5613;2.2065;2.6695;9.9018;-9.0983;-0.4148;-1.2654;-0.1833;41.0;34.13;-4.12;0.5;201.73;-83.33;-65.27;0.4;58.316;12.845108;77.66332;;3063.1360279499304;;85.55161;;0 / 23;1132;2016-11-30 15:59:28:956
4.29;19.46;-7.968;0.2315;9.5613;2.2065;2.6695;9.9018;-9.0983;-0.4148;-1.2654;-0.1833;41.0;34.13;-4.12;0.5;201.73;-83.33;-65.27;0.4;58.316;12.845108;77.66332;;3063.1360279499304;;85.55161;;0 / 23;1132;2016-11-30 15:59:28:956
4.29;19.46;-7.968;0.2315;9.5613;2.2065;2.6695;9.9018;-9.0983;-0.4148;-1.2654;-0.1833;41.0;34.13;-4.12;0.5;201.73;-83.33;-65.27;0.4;58.316;12.845108;77.66332;;3063.1360279499304;;85.55161;;0 / 23;1133;2016-11-30 15:59:28:957
4.29;19.46;-7.968;0.2315;9.5613;2.2065;2.6695;9.9018;-9.0983;-0.4148;-1.2654;-0.1833;41.0;34.13;-4.12;0.5;201.73;-83.33;-65.27;0.4;58.316;12.845108;77.66332;;3063.1360279499304;;85.55161;;0 / 23;1133;2016-11-30 15:59:28:957
4.29;19.46;-7.968;0.2315;9.5613;2.2065;2.6695;9.9018;-9.0983;-0.4148;-1.2654;-0.1833;41.0;34.13;-4.12;0.5;201.73;-83.33;-65.27;0.4;58.316;12.845108;77.66332;;3063.1360279499304;;85.55161;;0 / 23;1134;2016-11-30 15:59:28:958
4.29;19.46;-7.968;0.2315;9.5613;2.2065;2.6695;9.9018;-9.0983;-0.4148;-1.2654;-0.1833;41.0;34.13;-4.12;0.5;201.73;-83.33;-65.27;0.4;58.316;12.845108;77.66332;;3063.1360279499304;;85.55161;;0 / 23;1134;2016-11-30 15:59:28:958
4.29;19.46;-7.968;0.2315;9.5613;2.2065;2.6695;9.9018;-9.0983;-0.4148;-1.2654;-0.1833;41.0;34.13;-4.12;0.5;201.73;-83.33;-65.27;0.4;58.316;12.845108;77.66332;;3063.1360279499304;;85.55161;;0 / 23;1135;2016-11-30 15:59:28:959
4.29;19.46;-7.968;0.2315;9.5613;2.2065;2.6695;9.9018;-9.0983;-0.4148;-1.2654;-0.1833;41.0;34.13;-4.12;0.5;201.73;-83.33;-65.27;0.4;58.316;12.845108;77.66332;;3063.1360279499304;;85.55161;;0 / 23;1135;2016-11-30 15:59:28:959
4.29;19.46;-7.968;0.2315;9.5613;2.2065;2.6695;9.9018;-9.0983;-0.4148;-1.2654;-0.1833;41.0;34.13;-4.12;0.5;201.73;-83.33;-65.27;0.4;58.316;12.845108;77.66332;;3063.1360279499304;;85.55161;;0 / 23;1136;2016-11-30 15:59:28:960
4.29;19.46;-7.968;0.2315;9.5613;2.2065;2.6695;9.9018;-9.0983;-0.4148;-1.2654;-0.1833;41.0;34.13;-4.12;0.5;201.73;-83.33;-65.27;0.4;58.316;12.845108;77.66332;;3063.1360279499304;;85.55161;;0 / 23;1137;2016-11-30 15:59:28:961
4.29;19.46;-7.968;0.2315;9.5613;2.2065;2.6695;9.9018;-9.0983;-0.4148;-1.2654;-0.1833;41.0;34.13;-4.12;0.5;201.73;-83.33;-65.27;0.4;58.316;12.845108;77.66332;;3063.1360279499304;;85.55161;;0 / 23;1139;2016-11-30 15:59:28:963
4.29;19.46;-7.968;0.2315;9.5613;2.2065;2.6695;9.9018;-9.0983;-0.4148;-1.2654;-0.1833;41.0;34.13;-4.12;0.5;201.73;-83.33;-65.27;0.4;58.316;12.845108;77.66332;;3063.1360279499304;;85.55161;;0 / 23;1144;2016-11-30 15:59:28:968
4.29;19.46;-7.968;0.2315;9.5613;2.2065;2.6695;9.9018;-9.0983;-0.4148;-1.2654;-0.1833;41.0;34.13;-4.12;0.5;201.73;-83.33;-65.27;0.4;58.316;12.845108;77.66332;;3063.1360279499304;;85.55161;;0 / 23;1150;2016-11-30 15:59:28:974
4.29;19.46;-7.968;0.2315;9.5613;2.2065;2.6695;9.9018;-9.0983;-0.4148;-1.2654;-0.1833;41.0;34.13;-4.12;0.5;201.73;-83.33;-65.27;0.4;58.316;12.845108;77.66332;;3063.1360279499304;;85.55161;;0 / 23;1155;2016-11-30 15:59:28:979
4.29;19.46;-7.968;0.2315;9.5613;2.2065;2.6695;9.9018;-9.0983;-0.4148;-1.2654;-0.1833;41.0;34.13;-4.12;0.5;201.73;-83.33;-65.27;0.4;58.316;12.845108;77.66332;;3063.1360279499304;;85.55161;;0 / 23;1159;2016-11-30 15:59:28:983
4.29;19.46;-7.968;0.2315;9.5613;2.2065;2.6695;9.9018;-9.0983;-0.4148;-1.2654;-0.1833;41.0;34.13;-4.12;0.5;201.73;-83.33;-65.27;0.4;58.316;12.845108;77.66332;;3063.1360279499304;;85.55161;;0 / 23;1164;2016-11-30 15:59:28:988
4.29;19.46;-7.968;0.2315;9.5613;2.2065;2.6695;9.9018;-9.0983;-0.4148;-1.2654;-0.1833;41.0;34.13;-4.12;0.5;201.73;-83.33;-65.27;0.4;58.316;12.845108;77.66332;;3063.1360279499304;;85.55161;;0 / 23;1170;2016-11-30 15:59:28:994
4.29;19.46;-7.968;0.2315;9.5613;2.2065;2.6695;9.9018;-9.0983;-0.4148;-1.2654;-0.1833;41.0;34.13;-4.12;0.5;201.73;-83.33;-65.27;0.4;58.316;12.845108;77.66332;;3063.1360279499304;;85.55161;;0 / 23;1175;2016-11-30 15:59:28:999
4.29;19.46;-7.968;0.2315;9.5613;2.2065;2.6695;9.9018;-9.0983;-0.4148;-1.2654;-0.1833;41.0;34.13;-4.12;0.5;201.73;-83.33;-65.27;0.4;58.316;12.845108;77.66332;;3063.1360279499304;;85.55161;;0 / 23;1179;2016-11-30 15:59:29:003
4.29;19.46;-7.968;0.2315;9.5613;2.2065;2.6695;9.9018;-9.0983;-0.4148;-1.2654;-0.1833;41.0;34.13;-4.12;0.5;201.73;-83.33;-65.27;0.4;58.316;12.845108;77.66332;;3063.1360279499304;;85.55161;;0 / 23;1185;2016-11-30 15:59:29:009
4.29;19.46;-7.968;0.2315;9.5613;2.2065;2.6695;9.9018;-9.0983;-0.4148;-1.2654;-0.1833;41.0;34.13;-4.12;0.5;201.73;-83.33;-65.27;0.4;58.316;12.845108;77.66332;;3063.1360279499304;;85.55161;;0 / 23;1190;2016-11-30 15:59:29:014
1.685;17.621;-1.992;0.2451;9.5886;2.0839;0.5176;8.7986;-5.2982;1.0218;-1.3237;-0.2981;41.0;33.63;-4.06;0.88;261.02;-76.94;-5.99;0.4;58.316;12.845108;77.66332;;3063.1360279499304;;85.55161;;0 / 23;1195;2016-11-30 15:59:29:019
1.685;17.621;-1.992;0.2451;9.5886;2.0839;0.5176;8.7986;-5.2982;1.0218;-1.3237;-0.2981;41.0;33.63;-4.06;0.88;261.02;-76.94;-5.99;0.4;58.316;12.845108;77.66332;;3063.1360279499304;;85.55161;;0 / 23;1200;2016-11-30 15:59:29:024
1.685;17.621;-1.992;0.2451;9.5886;2.0839;0.5176;8.7986;-5.2982;1.0218;-1.3237;-0.2981;87.931;33.63;-4.06;0.88;261.02;-76.94;-5.99;0.4;58.316;12.845108;77.66332;;3063.1360279499304;;85.55161;;0 / 23;1205;2016-11-30 15:59:29:029
1.685;17.621;-1.992;0.2451;9.5886;2.0839;0.5176;8.7986;-5.2982;1.0218;-1.3237;-0.2981;87.931;33.63;-4.06;0.88;261.02;-76.94;-5.99;0.4;58.316;12.845108;77.66332;;3063.1360279499304;;85.55161;;0 / 23;1210;2016-11-30 15:59:29:034
1.685;17.621;-1.992;0.2451;9.5886;2.0839;0.5176;8.7986;-5.2982;1.0218;-1.3237;-0.2981;87.931;33.63;-4.06;0.88;261.02;-76.94;-5.99;0.4;58.316;12.845108;77.66332;;3063.1360279499304;;85.55161;;0 / 23;1215;2016-11-30 15:59:29:039
-0.919;8.887;-0.306;0.177;9.6567;1.7161;3.8;4.1405;-2.0158;2.1527;-1.2727;-0.7093;87.931;33.19;-4.62;1.31;261.02;-76.94;-5.99;0.4;58.316;12.845108;77.66332;;3063.1360279499304;;85.55161;;0 / 23;1219;2016-11-30 15:59:29:043
-0.919;8.887;-0.306;0.177;9.6567;1.7161;3.8;4.1405;-2.0158;2.1527;-1.2727;-0.7093;87.931;33.19;-4.62;1.31;261.02;-76.94;-5.99;0.4;58.316;12.845108;77.66332;;3063.1360279499304;;85.55161;;0 / 23;1224;2016-11-30 15:59:29:048
-1.072;4.903;0.766;0.177;9.6567;1.7161;3.8;4.1405;-2.0158;2.1527;-1.2727;-0.7093;87.931;33.19;-4.62;1.31;261.02;-76.94;-5.99;0.4;58.316;12.845108;77.66332;;3063.1360279499304;;85.55161;;0 / 23;1230;2016-11-30 15:59:29:054
-1.072;4.903;0.766;0.177;9.6567;1.7161;3.8;4.1405;-2.0158;2.1527;-1.2727;-0.7093;87.931;33.19;-4.62;1.31;260.98;-79.87;-5.89;0.4;58.316;12.845108;77.66332;;3063.1360279499304;;85.55161;;0 / 23;1235;2016-11-30 15:59:29:059
-1.072;4.903;0.766;0.177;9.6567;1.7161;3.8;4.1405;-2.0158;2.1527;-1.2727;-0.7093;87.931;33.19;-4.62;1.31;260.98;-79.87;-5.89;0.4;58.316;12.845108;77.66332;;3063.1360279499304;;85.55161;;0 / 23;1239;2016-11-30 15:59:29:063
-1.072;4.903;0.766;0.177;9.6567;1.7161;3.8;4.1405;-2.0158;2.1527;-1.2727;-0.7093;87.931;33.19;-4.62;1.31;260.98;-79.87;-5.89;0.4;58.316;12.845108;77.66332;;3063.1360279499304;;85.55161;;0 / 23;1244;2016-11-30 15:59:29:068
-1.072;4.903;0.766;0.177;9.6567;1.7161;3.8;4.1405;-2.0158;2.1527;-1.2727;-0.7093;87.931;33.19;-4.62;1.31;260.98;-79.87;-5.89;0.4;58.316;12.845108;77.66332;;3063.1360279499304;;85.55161;;0 / 23;1250;2016-11-30 15:59:29:074
-1.072;4.903;0.766;0.177;9.6567;1.7161;3.8;4.1405;-2.0158;2.1527;-1.2727;-0.7093;87.931;33.19;-4.62;1.31;260.98;-79.87;-5.89;0.4;58.316;12.845108;77.66332;;3063.1360279499304;;85.55161;;0 / 23;1254;2016-11-30 15:59:29:078
-1.072;4.903;0.766;0.177;9.6567;1.7161;3.8;4.1405;-2.0158;2.1527;-1.2727;-0.7093;87.931;33.19;-4.62;1.31;260.98;-79.87;-5.89;0.4;58.316;12.845108;77.66332;;3063.1360279499304;;85.55161;;0 / 23;1259;2016-11-30 15:59:29:083
-1.072;4.903;0.766;0.177;9.6567;1.7161;3.8;4.1405;-2.0158;2.1527;-1.2727;-0.7093;87.931;33.19;-4.62;1.31;260.98;-79.87;-5.89;0.4;58.316;12.845108;77.66332;;3063.1360279499304;;85.55161;;0 / 23;1265;2016-11-30 15:59:29:089
-1.072;4.903;0.766;0.177;9.6567;1.7161;3.8;4.1405;-2.0158;2.1527;-1.2727;-0.7093;87.931;33.19;-4.62;1.31;260.98;-79.87;-5.89;0.4;58.316;12.845108;77.66332;;3063.1360279499304;;85.55161;;0 / 23;1269;2016-11-30 15:59:29:093
-1.072;4.903;0.766;0.177;9.6567;1.7161;3.8;4.1405;-2.0158;2.1527;-1.2727;-0.7093;87.931;33.19;-4.62;1.31;260.98;-79.87;-5.89;0.4;58.316;12.845108;77.66332;;3063.1360279499304;;85.55161;;0 / 23;1274;2016-11-30 15:59:29:098
0.0;3.984;2.145;0.177;9.6567;1.7161;3.8;4.1405;-2.0158;2.1527;-1.2727;-0.7093;87.931;33.19;-4.62;1.31;260.98;-79.87;-5.89;0.0;58.316;12.845108;77.66332;;3063.1360279499304;;85.55161;;0 / 23;1280;2016-11-30 15:59:29:104
0.0;3.984;2.145;0.177;9.6567;1.7161;3.8;4.1405;-2.0158;2.1527;-1.2727;-0.7093;87.931;33.19;-4.62;1.31;260.98;-79.87;-5.89;0.0;58.316;12.845108;77.66332;;3063.1360279499304;;85.55161;;0 / 23;1284;2016-11-30 15:59:29:108
0.0;3.984;2.145;0.177;9.6567;1.7161;3.8;4.1405;-2.0158;2.1527;-1.2727;-0.7093;87.931;33.19;-4.62;1.31;260.98;-79.87;-5.89;0.0;58.316;12.845108;77.66332;;3063.1360279499304;;85.55161;;0 / 23;1289;2016-11-30 15:59:29:113
0.0;3.984;2.145;0.177;9.6567;1.7161;3.8;4.1405;-2.0158;2.1527;-1.2727;-0.7093;87.931;33.19;-4.62;1.31;260.98;-79.87;-5.89;0.0;58.316;12.845108;77.66332;;3063.1360279499304;;85.55161;;0 / 23;1295;2016-11-30 15:59:29:119
-0.919;14.25;-0.919;0.1226;9.7384;1.1713;-1.0351;4.5083;-2.0839;0.3101;-0.1565;-0.0387;87.931;32.63;-4.75;2.38;260.98;-79.87;-5.89;0.0;58.316;12.845108;77.66332;;3063.1360279499304;;85.55161;;0 / 23;1300;2016-11-30 15:59:29:124
-0.919;14.25;-0.919;0.1226;9.7384;1.1713;-1.0351;4.5083;-2.0839;0.3101;-0.1565;-0.0387;87.931;32.63;-4.75;2.38;260.98;-79.87;-5.89;0.0;58.316;12.845108;77.66332;;3063.1360279499304;;85.55161;;0 / 23;1304;2016-11-30 15:59:29:128
-0.919;14.25;-0.919;0.1226;9.7384;1.1713;-1.0351;4.5083;-2.0839;0.3101;-0.1565;-0.0387;87.931;32.63;-4.75;2.38;260.98;-79.87;-5.89;0.0;58.316;12.845108;77.66332;;3063.1360279499304;;85.55161;;0 / 23;1310;2016-11-30 15:59:29:134
-0.919;14.25;-0.919;0.2043;9.7793;0.8308;2.6968;5.5434;0.6946;1.6103;-0.7897;0.6736;87.931;32.19;-4.44;3.0;260.98;-79.87;-5.89;0.0;58.316;12.845108;77.66332;;3063.1360279499304;;85.55161;;0 / 23;1315;2016-11-30 15:59:29:139
-3.064;10.113;-5.976;0.2043;9.7793;0.8308;2.6968;5.5434;0.6946;1.6103;-0.7897;0.6736;87.931;32.19;-4.44;3.0;260.98;-79.87;-5.89;0.0;58.316;12.845108;77.66332;;3063.1360279499304;;85.55161;;0 / 23;1319;2016-11-30 15:59:29:143
-3.064;10.113;-5.976;0.2043;9.7793;0.8308;2.6968;5.5434;0.6946;1.3515;-0.7183;1.0758;87.931;32.19;-4.44;3.0;260.98;-79.87;-5.89;0.0;59.972;12.845108;77.66332;;3063.1360279499304;;85.55161;;0 / 23;1325;2016-11-30 15:59:29:149
-3.064;10.113;-5.976;0.2043;9.7793;0.8308;2.6968;5.5434;0.6946;1.3515;-0.7183;1.0758;87.931;32.19;-4.44;3.0;260.98;-79.87;-5.89;0.0;59.972;12.845108;77.66332;;3063.1360279499304;;85.55161;;0 / 23;1330;2016-11-30 15:59:29:154
-3.064;10.113;-5.976;0.4222;9.7929;0.5857;-3.0237;-0.4495;-5.6387;1.2294;-0.688;1.1246;87.931;31.44;-3.87;4.56;246.52;-85.0;-13.81;0.0;59.972;12.845108;77.66332;;3063.1360279499304;;85.55161;;0 / 23;1334;2016-11-30 15:59:29:158
-0.612;6.895;-3.984;0.4222;9.7929;0.5857;-3.0237;-0.4495;-5.6387;1.2294;-0.688;1.1246;87.931;31.44;-3.87;4.56;246.52;-85.0;-13.81;0.0;59.972;12.845108;77.66332;;3063.1360279499304;;85.55161;;0 / 23;1339;2016-11-30 15:59:29:163
-0.612;6.895;-3.984;0.4222;9.7929;0.5857;-3.0237;-0.4495;-5.6387;1.2294;-0.688;1.1246;87.931;31.44;-3.87;4.56;246.52;-85.0;-13.81;0.0;59.972;12.845108;77.66332;;3063.1360279499304;;85.55161;;0 / 23;1345;2016-11-30 15:59:29:169
-0.612;6.895;-3.984;0.4222;9.7929;0.5857;-3.0237;-0.4495;-5.6387;1.2294;-0.688;1.1246;87.931;31.44;-3.87;4.56;246.52;-85.0;-13.81;0.0;59.972;12.845108;77.66332;;3063.1360279499304;;85.55161;;0 / 23;1350;2016-11-30 15:59:29:174
-0.612;6.895;-3.984;0.6401;9.7929;0.3269;-1.4029;-2.9011;-4.1541;1.5495;-0.4535;1.1244;87.931;31.44;-3.62;5.75;246.52;-85.0;-13.81;0.0;59.972;12.845108;77.66332;;3063.1360279499304;;85.55161;;0 / 23;1354;2016-11-30 15:59:29:178
0.459;8.734;0.612;0.6401;9.7929;0.3269;-1.4029;-2.9011;-4.1541;1.5495;-0.4535;1.1244;87.931;31.44;-3.62;5.75;246.52;-85.0;-13.81;0.0;59.972;12.845108;77.66332;;3063.1360279499304;;85.55161;;0 / 23;1360;2016-11-30 15:59:29:184
0.459;8.734;0.612;0.6401;9.7929;0.3269;-1.4029;-2.9011;-4.1541;1.4939;-0.2274;1.069;87.931;31.44;-3.62;5.75;246.52;-85.0;-13.81;0.0;59.972;12.845108;77.66332;;3063.1360279499304;;85.55161;;0 / 23;1364;2016-11-30 15:59:29:188
0.766;8.887;-0.459;0.6401;9.7929;0.3269;-1.4029;-2.9011;-4.1541;1.4939;-0.2274;1.069;87.931;31.44;-3.62;5.75;246.52;-85.0;-13.81;0.0;59.972;12.845108;77.66332;;3063.1360279499304;;85.55161;;0 / 23;1370;2016-11-30 15:59:29:194
0.766;8.887;-0.459;0.8172;9.7793;0.0681;-0.967;-1.3484;-0.0681;1.3559;0.0319;0.8563;87.931;31.13;-4.56;8.69;190.77;-85.8;-62.95;0.0;59.972;12.845108;77.66332;;3063.1360279499304;;85.55161;;0 / 23;1375;2016-11-30 15:59:29:199
0.766;8.887;-0.459;0.8172;9.7793;0.0681;-0.967;-1.3484;-0.0681;1.3559;0.0319;0.8563;87.931;31.13;-4.56;8.69;190.77;-85.8;-62.95;0.0;59.972;12.845108;77.66332;;3063.1360279499304;;85.55161;;0 / 23;1379;2016-11-30 15:59:29:203
0.766;8.887;-0.459;0.8172;9.7793;0.0681;-0.967;-1.3484;-0.0681;1.3853;0.2956;0.7093;87.931;31.13;-4.56;8.69;190.77;-85.8;-62.95;0.0;59.972;12.845108;77.66332;;3063.1360279499304;;85.55161;;0 / 23;1385;2016-11-30 15:59:29:209
0.766;8.887;-0.459;0.8172;9.7793;0.0681;-0.967;-1.3484;-0.0681;1.3853;0.2956;0.7093;87.931;31.13;-4.56;8.69;190.77;-85.8;-62.95;0.0;59.972;12.845108;77.66332;;3063.1360279499304;;85.55161;;0 / 23;1390;2016-11-30 15:59:29:214
1.992;9.04;-0.459;0.967;9.7656;-0.2996;1.6344;-0.1089;-0.6129;1.3603;0.8015;0.4072;87.931;31.38;-5.75;12.06;190.77;-85.8;-62.95;0.0;59.972;12.845108;77.66332;;3063.1360279499304;;85.55161;;0 / 23;1394;2016-11-30 15:59:29:218
1.992;9.04;-0.459;0.967;9.7656;-0.2996;1.6344;-0.1089;-0.6129;1.3603;0.8015;0.4072;87.931;31.38;-5.75;12.06;190.77;-85.8;-62.95;0.0;59.972;12.845108;77.66332;;3063.1360279499304;;85.55161;;0 / 23;1400;2016-11-30 15:59:29:224
1.992;9.04;-0.459;0.967;9.7656;-0.2996;1.6344;-0.1089;-0.6129;1.3603;0.8015;0.4072;87.931;31.38;-5.75;12.06;190.77;-85.8;-62.95;0.0;59.972;12.845108;77.66332;;3063.1360279499304;;85.55161;;0 / 23;1405;2016-11-30 15:59:29:229
11.645;7.048;7.048;0.967;9.7656;-0.2996;1.6344;-0.1089;-0.6129;1.3603;0.8015;0.4072;87.931;31.38;-5.75;12.06;190.77;-85.8;-62.95;0.0;59.972;12.845108;77.66332;;3063.1360279499304;;85.55161;;0 / 23;1409;2016-11-30 15:59:29:233
11.645;7.048;7.048;1.0079;9.752;-0.395;3.8954;-6.0746;14.6416;1.0641;0.9989;0.3924;87.931;30.81;-5.12;12.5;140.44;-84.08;-107.22;0.0;59.972;12.845108;77.66332;;3063.1360279499304;;85.55161;;0 / 23;1415;2016-11-30 15:59:29:239
11.645;7.048;7.048;1.0079;9.752;-0.395;3.8954;-6.0746;14.6416;1.0641;0.9989;0.3924;87.931;30.81;-5.12;12.5;140.44;-84.08;-107.22;0.0;59.972;12.845108;77.66332;;3063.1360279499304;;85.55161;;0 / 23;1420;2016-11-30 15:59:29:244
11.645;7.048;7.048;1.0079;9.752;-0.395;3.8954;-6.0746;14.6416;0.778;1.2073;0.2771;87.931;30.81;-5.12;12.5;140.44;-84.08;-107.22;0.0;59.972;12.845108;77.66332;;3063.1360279499304;;85.55161;;0 / 23;1425;2016-11-30 15:59:29:249
0.919;12.718;-8.121;1.0079;9.752;-0.395;3.8954;-6.0746;14.6416;0.778;1.2073;0.2771;87.931;30.81;-5.12;12.5;140.44;-84.08;-107.22;0.0;59.972;12.845108;77.66332;;3063.1360279499304;;85.55161;;0 / 23;1429;2016-11-30 15:59:29:253
0.919;12.718;-8.121;1.076;9.7384;-0.5176;-2.9147;3.7455;-8.5262;0.778;1.2073;0.2771;87.931;30.44;-5.12;14.25;140.44;-84.08;-107.22;0.0;59.972;12.845108;77.66332;;3063.1360279499304;;85.55161;;0 / 23;1435;2016-11-30 15:59:29:259
1.992;13.331;-3.217;1.076;9.7384;-0.5176;-2.9147;3.7455;-8.5262;0.778;1.2073;0.2771;87.931;30.44;-5.12;14.25;140.44;-84.08;-107.22;0.0;59.972;12.845108;77.66332;;3063.1360279499304;;85.55161;;0 / 23;1440;2016-11-30 15:59:29:264
1.992;13.331;-3.217;1.076;9.7384;-0.5176;-2.9147;3.7455;-8.5262;0.6883;1.4418;0.1669;87.931;30.44;-5.12;14.25;140.44;-84.08;-107.22;0.0;59.972;12.845108;77.66332;;3063.1360279499304;;85.55161;;0 / 23;1445;2016-11-30 15:59:29:269
1.992;13.331;-3.217;1.076;9.7384;-0.5176;-2.9147;3.7455;-8.5262;0.6883;1.4418;0.1669;87.931;30.44;-5.12;14.25;140.44;-84.08;-107.22;0.0;59.972;12.845108;77.66332;;3063.1360279499304;;85.55161;;0 / 23;1449;2016-11-30 15:59:29:273
1.992;13.331;-3.217;1.1305;9.7248;-0.6674;-0.5312;2.8466;0.3677;0.6128;1.5694;0.0755;87.931;30.0;-6.06;16.5;125.56;-83.01;-115.69;0.0;59.972;12.845108;77.66332;;3063.1360279499304;;85.55161;;0 / 23;1455;2016-11-30 15:59:29:279
0.153;11.952;0.306;1.1305;9.7248;-0.6674;-0.5312;2.8466;0.3677;0.6128;1.5694;0.0755;87.931;30.0;-6.06;16.5;125.56;-83.01;-115.69;0.0;59.972;12.845108;77.66332;;3063.1360279499304;;85.55161;;0 / 23;1460;2016-11-30 15:59:29:284
0.153;11.952;0.306;1.1305;9.7248;-0.6674;-0.5312;2.8466;0.3677;0.4251;1.6046;-0.0145;87.931;30.0;-6.06;16.5;125.56;-83.01;-115.69;0.0;59.972;12.845108;77.66332;;3063.1360279499304;;85.55161;;0 / 23;1465;2016-11-30 15:59:29:289
0.153;11.952;0.306;1.1305;9.7248;-0.6674;-0.5312;2.8466;0.3677;0.4251;1.6046;-0.0145;87.931;30.0;-6.06;16.5;125.56;-83.01;-115.69;0.0;59.972;12.845108;77.66332;;3063.1360279499304;;85.55161;;0 / 23;1470;2016-11-30 15:59:29:294
0.153;11.952;0.306;1.1441;9.7248;-0.6946;-1.4437;2.9964;0.5448;0.3122;1.8839;-0.0635;87.931;28.5;-5.81;18.13;125.56;-83.01;-115.69;0.0;59.972;12.845108;77.66332;;3063.1360279499304;;85.55161;;0 / 23;1475;2016-11-30 15:59:29:299
-2.298;15.016;-1.838;1.1441;9.7248;-0.6946;-1.4437;2.9964;0.5448;0.3122;1.8839;-0.0635;87.931;28.5;-5.81;18.13;125.56;-83.01;-115.69;0.0;59.972;12.845108;77.66332;;3063.1360279499304;;85.55161;;0 / 23;1480;2016-11-30 15:59:29:304
-2.298;15.016;-1.838;1.1441;9.7248;-0.6946;-1.4437;2.9964;0.5448;0.3182;2.0175;-0.117;87.931;28.5;-5.81;18.13;125.56;-83.01;-115.69;0.0;59.972;12.845108;77.66332;;3063.1360279499304;;85.55161;;0 / 23;1485;2016-11-30 15:59:29:309
-2.298;15.016;-1.838;1.1441;9.7248;-0.6946;-1.4437;2.9964;0.5448;0.3182;2.0175;-0.117;87.931;28.5;-5.81;18.13;125.56;-83.01;-115.69;0.0;59.972;12.845108;77.66332;;3063.1360279499304;;85.55161;;0 / 23;1489;2016-11-30 15:59:29:313
-2.298;15.016;-1.838;1.1441;9.7248;-0.7082;-2.0566;2.8466;-1.4301;0.3161;2.1157;-0.2255;87.931;27.13;-6.19;18.63;114.7;-82.16;-121.26;0.0;59.972;12.845108;77.66332;;3063.1360279499304;;85.55161;;0 / 23;1494;2016-11-30 15:59:29:318
0.306;9.807;-2.604;1.1441;9.7248;-0.7082;-2.0566;2.8466;-1.4301;0.3161;2.1157;-0.2255;4.1667;27.13;-6.19;18.63;114.7;-82.16;-121.26;0.0;59.972;12.845108;77.66332;;3063.1360279499304;;85.55161;;0 / 23;1500;2016-11-30 15:59:29:324
0.306;9.807;-2.604;1.1441;9.7248;-0.7082;-2.0566;2.8466;-1.4301;0.576;2.1154;-0.571;4.1667;27.13;-6.19;18.63;114.7;-82.16;-121.26;0.0;59.972;12.845108;77.66332;;3063.1360279499304;;85.55161;;0 / 23;1505;2016-11-30 15:59:29:329
0.306;9.807;-2.604;1.1441;9.7248;-0.7082;-2.0566;2.8466;-1.4301;0.576;2.1154;-0.571;4.1667;27.13;-6.19;18.63;114.7;-82.16;-121.26;0.0;59.972;12.845108;77.66332;;3063.1360279499304;;85.55161;;0 / 23;1510;2016-11-30 15:59:29:334
0.306;9.807;-2.604;1.0487;9.7248;-0.8036;0.9398;-2.2201;-1.4846;0.8964;2.0267;-0.7216;4.1667;26.31;-7.0;20.81;114.7;-82.16;-121.26;0.0;59.972;12.845108;77.66332;;3063.1360279499304;;85.55161;;0 / 23;1515;2016-11-30 15:59:29:339
2.605;6.896;-0.458;1.0487;9.7248;-0.8036;0.9398;-2.2201;-1.4846;0.8964;2.0267;-0.7216;4.1667;26.31;-7.0;20.81;114.7;-82.16;-121.26;0.0;59.972;12.845108;77.66332;;3063.1360279499304;;85.55161;;0 / 23;1519;2016-11-30 15:59:29:343
2.605;6.896;-0.458;1.0487;9.7248;-0.8036;0.9398;-2.2201;-1.4846;0.8607;2.0671;-0.573;4.1667;26.31;-7.0;20.81;114.7;-82.16;-121.26;0.0;59.972;12.845108;77.66332;;3063.1360279499304;;85.55161;;0 / 23;1524;2016-11-30 15:59:29:348
2.605;6.896;-0.458;1.0487;9.7248;-0.8036;0.9398;-2.2201;-1.4846;0.8607;2.0671;-0.573;4.1667;26.31;-7.0;20.81;114.7;-82.16;-121.26;0.0;59.972;12.845108;77.66332;;3063.1360279499304;;85.55161;;0 / 23;1529;2016-11-30 15:59:29:353
2.605;6.896;-0.458;0.9806;9.7248;-0.8989;1.471;-1.9068;1.4982;0.7262;2.0807;-0.5176;4.1667;25.63;-7.56;21.31;105.27;-82.26;-127.46;0.0;59.972;12.845108;77.66332;;3063.1360279499304;;85.55161;;0 / 23;1535;2016-11-30 15:59:29:359
1.073;9.195;0.92;0.9806;9.7248;-0.8989;1.471;-1.9068;1.4982;0.7262;2.0807;-0.5176;4.1667;25.63;-7.56;21.31;105.27;-82.26;-127.46;0.0;59.972;12.845108;77.66332;;3063.1360279499304;;85.55161;;0 / 23;1540;2016-11-30 15:59:29:364
1.073;9.195;0.92;0.9806;9.7248;-0.8989;1.471;-1.9068;1.4982;0.6357;2.0996;-0.4958;4.1667;25.63;-7.56;21.31;105.27;-82.26;-127.46;0.0;59.972;12.845108;77.66332;;3063.1360279499304;;85.55161;;0 / 23;1544;2016-11-30 15:59:29:368
1.073;9.195;0.92;0.9806;9.7248;-0.8989;1.471;-1.9068;1.4982;0.6357;2.0996;-0.4958;4.1667;25.63;-7.56;21.31;105.27;-82.26;-127.46;0.0;59.972;12.845108;77.66332;;3063.1360279499304;;85.55161;;0 / 23;1550;2016-11-30 15:59:29:374
1.073;9.195;0.92;0.9398;9.7248;-0.967;0.5857;-1.6072;0.6674;0.516;2.1577;-0.3938;4.1667;23.5;-8.69;21.81;105.27;-82.26;-127.46;0.0;59.972;12.845108;77.66332;;3063.1360279499304;;85.55161;;0 / 23;1554;2016-11-30 15:59:29:378
4.137;6.129;-1.685;0.9398;9.7248;-0.967;0.5857;-1.6072;0.6674;0.516;2.1577;-0.3938;4.1667;23.5;-8.69;21.81;105.27;-82.26;-127.46;0.0;59.972;12.845108;77.66332;;3063.1360279499304;;85.55161;;0 / 23;1559;2016-11-30 15:59:29:383
4.137;6.129;-1.685;0.9398;9.7248;-0.967;0.5857;-1.6072;0.6674;0.3406;2.2198;-0.1393;4.1667;23.5;-8.69;21.81;105.27;-82.26;-127.46;0.0;59.972;12.845108;77.66332;;3063.1360279499304;;85.55161;;0 / 23;1565;2016-11-30 15:59:29:389
4.137;6.129;-1.685;0.9398;9.7248;-0.967;0.5857;-1.6072;0.6674;0.3406;2.2198;-0.1393;4.1667;23.5;-8.87;22.94;105.27;-82.26;-127.46;0.0;59.972;12.845108;77.66332;;3063.1360279499304;;85.55161;;0 / 23;1582;2016-11-30 15:59:29:406
0.766;7.508;-1.685;1.0079;9.7112;-0.9806;2.8194;-5.1212;-0.5448;0.1794;2.2637;0.1961;4.1667;22.75;-8.87;22.94;91.37;-82.11;-135.82;0.0;59.972;12.845108;77.66332;;3063.1360279499304;;85.55161;;0 / 23;1583;2016-11-30 15:59:29:407
0.766;7.508;-1.685;1.0079;9.7112;-0.9806;2.8194;-5.1212;-0.5448;0.1794;2.2637;0.1961;4.1667;22.75;-8.87;22.94;91.37;-82.11;-135.82;0.0;59.972;12.845108;77.66332;;3063.1360279499304;;85.55161;;0 / 23;1584;2016-11-30 15:59:29:408
0.766;7.508;-1.685;1.0079;9.7112;-0.9806;2.8194;-5.1212;-0.5448;0.1794;2.2637;0.1961;4.1667;22.75;-8.87;22.94;91.37;-82.11;-135.82;0.0;59.972;12.845108;77.66332;;3063.1360279499304;;85.55161;;0 / 23;1585;2016-11-30 15:59:29:409
0.766;7.508;-1.685;1.0079;9.7112;-0.9806;2.8194;-5.1212;-0.5448;0.1794;2.2637;0.1961;4.1667;22.75;-8.87;22.94;91.37;-82.11;-135.82;0.0;59.972;12.845108;77.66332;;3063.1360279499304;;85.55161;;0 / 23;1590;2016-11-30 15:59:29:414
0.766;7.508;-1.685;1.0079;9.7112;-0.9806;2.8194;-5.1212;-0.5448;0.1794;2.2637;0.1961;4.1667;22.75;-8.87;22.94;91.37;-82.11;-135.82;0.0;59.972;12.845108;77.66332;;3063.1360279499304;;85.55161;;0 / 23;1594;2016-11-30 15:59:29:418
0.766;7.508;-1.685;1.0079;9.7112;-0.9806;2.8194;-5.1212;-0.5448;0.1794;2.2637;0.1961;4.1667;22.75;-8.87;22.94;91.37;-82.11;-135.82;0.0;59.972;12.845108;77.66332;;3063.1360279499304;;85.55161;;0 / 23;1600;2016-11-30 15:59:29:424
0.766;7.508;-1.685;1.0079;9.7112;-0.9806;2.8194;-5.1212;-0.5448;0.1794;2.2637;0.1961;4.1667;22.75;-8.87;22.94;91.37;-82.11;-135.82;0.0;59.972;12.845108;77.66332;;3063.1360279499304;;85.55161;;0 / 23;1604;2016-11-30 15:59:29:428
0.766;7.508;-1.685;1.0079;9.7112;-0.9806;2.8194;-5.1212;-0.5448;0.1794;2.2637;0.1961;4.1667;22.75;-8.87;22.94;91.37;-82.11;-135.82;0.0;59.972;12.845108;77.66332;;3063.1360279499304;;85.55161;;0 / 23;1609;2016-11-30 15:59:29:433
1.686;7.049;-1.684;1.0624;9.7112;-0.9806;0.6129;-2.6695;-0.6946;0.1723;1.8901;0.2236;4.1667;23.31;-8.37;23.0;91.37;-82.11;-135.82;0.0;59.972;12.845108;77.66332;;3063.1360279499304;;85.55161;;0 / 23;1615;2016-11-30 15:59:29:439
1.686;7.049;-1.684;1.0624;9.7112;-0.9806;0.6129;-2.6695;-0.6946;0.1723;1.8901;0.2236;4.1667;23.31;-8.37;23.0;91.37;-82.11;-135.82;0.0;59.972;12.845108;77.66332;;3063.1360279499304;;85.55161;;0 / 23;1620;2016-11-30 15:59:29:444
1.686;7.049;-1.684;1.0624;9.7112;-0.9806;0.6129;-2.6695;-0.6946;0.1723;1.8901;0.2236;4.1667;23.31;-8.37;23.0;91.37;-82.11;-135.82;0.0;57.583;12.845108;77.66332;;3063.1360279499304;;85.55161;;0 / 23;1625;2016-11-30 15:59:29:449
0.153;1.072;0.0;1.0624;9.7112;-0.9806;0.6129;-2.6695;-0.6946;0.1723;1.8901;0.2236;4.1667;23.31;-8.37;23.0;91.37;-82.11;-135.82;0.0;57.583;12.845108;77.66332;;3063.1360279499304;;85.55161;;0 / 23;1630;2016-11-30 15:59:29:454
0.153;1.072;0.0;1.3484;9.6567;-1.076;-1.1986;-8.5943;1.076;0.7311;1.7966;0.7816;4.1667;22.25;-8.37;22.75;93.12;-81.53;-132.71;0.0;57.583;12.845108;77.66332;;3063.1360279499304;;85.55161;;0 / 23;1634;2016-11-30 15:59:29:458
0.153;1.072;0.0;1.3484;9.6567;-1.076;-1.1986;-8.5943;1.076;0.7311;1.7966;0.7816;4.1667;22.25;-8.37;22.75;93.12;-81.53;-132.71;0.0;57.583;12.845108;77.66332;;3063.1360279499304;;85.55161;;0 / 23;1640;2016-11-30 15:59:29:464
0.153;1.072;0.0;1.3484;9.6567;-1.076;-1.1986;-8.5943;1.076;0.7311;1.7966;0.7816;4.1667;22.25;-8.37;22.75;93.12;-81.53;-132.71;0.0;57.583;12.845108;77.66332;;3063.1360279499304;;85.55161;;0 / 23;1645;2016-11-30 15:59:29:469
0.153;1.072;0.0;1.3484;9.6567;-1.076;-1.1986;-8.5943;1.076;0.7311;1.7966;0.7816;4.1667;22.25;-8.37;22.75;93.12;-81.53;-132.71;0.0;57.583;12.845108;77.66332;;3063.1360279499304;;85.55161;;0 / 23;1649;2016-11-30 15:59:29:473
-1.685;4.137;3.984;1.4574;9.6294;-1.1986;-3.7455;-7.9541;8.2402;0.8557;1.6444;0.2686;4.1667;22.44;-8.0;22.88;93.12;-81.53;-132.71;0.0;57.583;12.845108;77.66332;;3063.1360279499304;;85.55161;;0 / 23;1655;2016-11-30 15:59:29:479
-1.685;4.137;3.984;1.4574;9.6294;-1.1986;-3.7455;-7.9541;8.2402;0.8557;1.6444;0.2686;4.1667;22.44;-8.0;22.88;93.12;-81.53;-132.71;0.0;57.583;12.845108;77.66332;;3063.1360279499304;;85.55161;;0 / 23;1660;2016-11-30 15:59:29:484
-1.685;4.137;3.984;1.4574;9.6294;-1.1986;-3.7455;-7.9541;8.2402;0.3529;1.7061;0.0761;4.1667;22.44;-8.0;22.88;93.12;-81.53;-132.71;0.0;57.583;12.845108;77.66332;;3063.1360279499304;;85.55161;;0 / 23;1664;2016-11-30 15:59:29:488
-1.685;4.137;3.984;1.4574;9.6294;-1.1986;-3.7455;-7.9541;8.2402;0.3529;1.7061;0.0761;4.1667;22.44;-8.0;22.88;93.12;-81.53;-132.71;0.0;57.583;12.845108;77.66332;;3063.1360279499304;;85.55161;;0 / 23;1670;2016-11-30 15:59:29:494
0.919;1.685;-10.726;1.5118;9.6158;-1.2122;-3.0373;-7.4774;-5.0667;0.3529;1.7061;0.0761;4.1667;23.44;-7.06;23.69;96.57;-78.91;-129.43;0.0;57.583;12.845108;77.66332;;3063.1360279499304;;85.55161;;0 / 23;1675;2016-11-30 15:59:29:499
0.919;1.685;-10.726;1.5118;9.6158;-1.2122;-3.0373;-7.4774;-5.0667;0.3529;1.7061;0.0761;4.1667;23.44;-7.06;23.69;96.57;-78.91;-129.43;0.0;57.583;12.845108;77.66332;;3063.1360279499304;;85.55161;;0 / 23;1679;2016-11-30 15:59:29:503
0.919;1.685;-10.726;1.5118;9.6158;-1.2122;-3.0373;-7.4774;-5.0667;0.9193;1.3843;0.1764;4.1667;23.44;-7.06;23.69;96.57;-78.91;-129.43;0.0;57.583;12.845108;77.66332;;3063.1360279499304;;85.55161;;0 / 23;1684;2016-11-30 15:59:29:508
0.919;1.685;-10.726;1.5118;9.6158;-1.2122;-3.0373;-7.4774;-5.0667;0.9193;1.3843;0.1764;4.1667;23.44;-7.06;23.69;96.57;-78.91;-129.43;0.0;57.583;12.845108;77.66332;;3063.1360279499304;;85.55161;;0 / 23;1690;2016-11-30 15:59:29:514
1.072;6.589;-0.153;1.5799;9.5886;-1.3756;-2.0294;-10.038;-2.9147;1.2634;1.1549;0.2454;4.1667;23.5;-7.0;23.25;96.57;-78.91;-129.43;0.0;57.583;12.845108;77.66332;;3063.1360279499304;;85.55161;;0 / 23;1695;2016-11-30 15:59:29:519
1.072;6.589;-0.153;1.5799;9.5886;-1.3756;-2.0294;-10.038;-2.9147;1.2634;1.1549;0.2454;4.1667;23.5;-7.0;23.25;96.57;-78.91;-129.43;0.0;57.583;12.845108;77.66332;;3063.1360279499304;;85.55161;;0 / 23;1699;2016-11-30 15:59:29:523
1.072;6.589;-0.153;1.5799;9.5886;-1.3756;-2.0294;-10.038;-2.9147;1.108;0.9553;0.2735;4.1667;23.5;-7.0;23.25;96.57;-78.91;-129.43;0.0;57.583;12.845108;77.66332;;3063.1360279499304;;85.55161;;0 / 23;1705;2016-11-30 15:59:29:529
1.072;6.589;-0.153;1.5799;9.5886;-1.3756;-2.0294;-10.038;-2.9147;1.108;0.9553;0.2735;4.1667;23.5;-7.0;23.25;96.57;-78.91;-129.43;0.0;57.583;12.845108;77.66332;;3063.1360279499304;;85.55161;;0 / 23;1710;2016-11-30 15:59:29:534
3.677;9.807;-1.225;1.6617;9.5477;-1.5527;-3.5004;0.7219;0.9534;1.108;0.9553;0.2735;4.1667;23.5;-6.19;23.44;97.25;-77.68;-131.05;0.0;57.583;12.845108;77.66332;;3063.1360279499304;;85.55161;;0 / 23;1715;2016-11-30 15:59:29:539
3.677;9.807;-1.225;1.6617;9.5477;-1.5527;-3.5004;0.7219;0.9534;1.108;0.9553;0.2735;4.1667;23.5;-6.19;23.44;97.25;-77.68;-131.05;0.0;57.583;12.845108;77.66332;;3063.1360279499304;;85.55161;;0 / 23;1720;2016-11-30 15:59:29:544
3.677;9.807;-1.225;1.6617;9.5477;-1.5527;-3.5004;0.7219;0.9534;1.5299;0.5653;1.0646;4.1667;23.5;-6.19;23.44;97.25;-77.68;-131.05;0.0;57.583;12.845108;77.66332;;3063.1360279499304;;85.55161;;0 / 23;1725;2016-11-30 15:59:29:549
3.677;9.807;-1.225;1.6617;9.5477;-1.5527;-3.5004;0.7219;0.9534;1.5299;0.5653;1.0646;4.1667;23.5;-6.19;23.44;97.25;-77.68;-131.05;0.0;57.583;12.845108;77.66332;;3063.1360279499304;;85.55161;;0 / 23;1729;2016-11-30 15:59:29:553
0.766;0.459;0.612;1.8251;9.466;-1.7842;-0.7627;-7.0144;-2.1928;1.5299;0.5653;1.0646;4.1667;24.19;-6.0;23.94;97.25;-77.68;-131.05;0.0;57.583;12.845108;77.66332;;3063.1360279499304;;85.55161;;0 / 23;1734;2016-11-30 15:59:29:558
0.766;0.459;0.612;1.8251;9.466;-1.7842;-0.7627;-7.0144;-2.1928;1.5299;0.5653;1.0646;4.1667;24.19;-6.0;23.94;97.25;-77.68;-131.05;0.0;57.583;12.845108;77.66332;;3063.1360279499304;;85.55161;;0 / 23;1740;2016-11-30 15:59:29:564
0.766;0.459;0.612;1.8251;9.466;-1.7842;-0.7627;-7.0144;-2.1928;1.3496;0.4985;1.0657;4.1667;24.19;-6.0;23.94;97.25;-77.68;-131.05;0.0;57.583;12.845108;77.66332;;3063.1360279499304;;85.55161;;0 / 23;1745;2016-11-30 15:59:29:569
0.766;0.459;0.612;1.8251;9.466;-1.7842;-0.7627;-7.0144;-2.1928;1.3496;0.4985;1.0657;4.1667;24.19;-6.0;23.94;97.25;-77.68;-131.05;0.0;57.583;12.845108;77.66332;;3063.1360279499304;;85.55161;;0 / 23;1750;2016-11-30 15:59:29:574
9.041;4.598;11.953;2.1384;9.3434;-2.0703;1.8387;-6.4423;11.7269;0.8249;0.6174;1.0216;4.1667;25.88;-6.37;22.69;96.57;-74.91;-134.35;0.0;57.583;12.845108;77.66332;;3063.1360279499304;;85.55161;;0 / 23;1755;2016-11-30 15:59:29:579
9.041;4.598;11.953;2.1384;9.3434;-2.0703;1.8387;-6.4423;11.7269;0.8249;0.6174;1.0216;4.1667;25.88;-6.37;22.69;96.57;-74.91;-134.35;0.0;57.583;12.845108;77.66332;;3063.1360279499304;;85.55161;;0 / 23;1760;2016-11-30 15:59:29:584
9.041;4.598;11.953;2.1384;9.3434;-2.0703;1.8387;-6.4423;11.7269;0.4156;0.5331;-0.712;4.1667;25.88;-6.37;22.69;96.57;-74.91;-134.35;0.0;57.583;12.845108;77.66332;;3063.1360279499304;;85.55161;;0 / 23;1765;2016-11-30 15:59:29:589
9.041;4.598;11.953;2.1384;9.3434;-2.0703;1.8387;-6.4423;11.7269;0.4156;0.5331;-0.712;4.1667;25.88;-6.37;22.69;96.57;-74.91;-134.35;0.0;57.583;12.845108;77.66332;;3063.1360279499304;;85.55161;;0 / 23;1770;2016-11-30 15:59:29:594
-1.685;17.928;-3.064;1.8932;9.3707;-2.1792;-16.603;3.2007;-4.0997;0.9346;0.1601;-2.2397;4.1667;25.94;-6.94;21.5;96.57;-74.91;-134.35;0.0;57.583;12.845108;77.66332;;3063.1360279499304;;85.55161;;0 / 23;1775;2016-11-30 15:59:29:599
-1.685;17.928;-3.064;1.8932;9.3707;-2.1792;-16.603;3.2007;-4.0997;0.9346;0.1601;-2.2397;4.1667;25.94;-6.94;21.5;96.57;-74.91;-134.35;0.0;57.583;12.845108;77.66332;;3063.1360279499304;;85.55161;;0 / 23;1780;2016-11-30 15:59:29:604
-1.685;17.928;-3.064;1.8932;9.3707;-2.1792;-16.603;3.2007;-4.0997;0.3818;0.1963;-1.1432;4.1667;25.94;-6.94;21.5;96.57;-74.91;-134.35;0.0;57.583;12.845108;77.66332;;3063.1360279499304;;85.55161;;0 / 23;1785;2016-11-30 15:59:29:609
-1.685;17.928;-3.064;1.8932;9.3707;-2.1792;-16.603;3.2007;-4.0997;0.3818;0.1963;-1.1432;4.1667;25.94;-6.94;21.5;96.57;-74.91;-134.35;0.0;57.583;12.845108;77.66332;;3063.1360279499304;;85.55161;;0 / 23;1789;2016-11-30 15:59:29:613
15.477;19.461;-2.91;1.7706;9.3979;-2.2065;11.5635;10.0653;-0.2451;0.1009;0.1841;-0.2858;4.1667;26.81;-8.81;19.44;100.12;-72.88;-139.02;0.0;57.583;12.845108;77.66332;;3063.1360279499304;;85.55161;;0 / 23;1795;2016-11-30 15:59:29:619
15.477;19.461;-2.91;1.7706;9.3979;-2.2065;11.5635;10.0653;-0.2451;0.1009;0.1841;-0.2858;4.1667;26.81;-8.81;19.44;100.12;-72.88;-139.02;0.0;57.583;12.845108;77.66332;;3063.1360279499304;;85.55161;;0 / 23;1800;2016-11-30 15:59:29:624
15.477;19.461;-2.91;1.7706;9.3979;-2.2065;11.5635;10.0653;-0.2451;-0.1557;0.1448;0.3913;4.1667;26.81;-8.81;19.44;100.12;-72.88;-139.02;0.0;57.583;12.845108;77.66332;;3063.1360279499304;;85.55161;;0 / 23;1805;2016-11-30 15:59:29:629
15.477;8.274;-2.911;1.7706;9.3979;-2.2065;11.5635;10.0653;-0.2451;-0.1557;0.1448;0.3913;2.5;26.81;-8.81;19.44;100.12;-72.88;-139.02;0.0;57.583;12.845108;77.66332;;3063.1360279499304;;85.55161;;0 / 23;1810;2016-11-30 15:59:29:634
5.976;8.274;-2.911;1.8523;9.3843;-2.1792;5.8022;1.0351;-0.572;-0.1928;-0.0011;0.541;2.5;27.38;-9.56;18.63;100.12;-72.88;-139.02;0.0;57.583;12.845108;77.66332;;3063.1360279499304;;85.55161;;0 / 23;1815;2016-11-30 15:59:29:639
5.976;8.274;-2.911;1.8523;9.3843;-2.1792;5.8022;1.0351;-0.572;-0.1928;-0.0011;0.541;2.5;27.38;-9.56;18.63;100.12;-72.88;-139.02;0.0;57.583;12.845108;77.66332;;3063.1360279499304;;85.55161;;0 / 23;1820;2016-11-30 15:59:29:644
5.976;8.274;-2.911;1.8523;9.3843;-2.1792;5.8022;1.0351;-0.572;-0.2133;-0.1183;0.5329;2.5;27.38;-9.56;18.63;100.12;-72.88;-139.02;0.0;57.583;12.845108;77.66332;;3063.1360279499304;;85.55161;;0 / 23;1824;2016-11-30 15:59:29:648
7.508;16.855;-0.459;1.8523;9.3843;-2.1792;5.8022;1.0351;-0.572;-0.2133;-0.1183;0.5329;2.5;27.38;-9.56;18.63;100.12;-72.88;-139.02;0.0;57.583;12.845108;77.66332;;3063.1360279499304;;85.55161;;0 / 23;1830;2016-11-30 15:59:29:654
7.508;16.855;-0.459;1.9613;9.3707;-2.1384;4.7807;5.952;0.4631;-0.2133;-0.1183;0.5329;2.5;28.38;-11.81;18.0;103.18;-73.05;-139.64;0.0;57.583;12.845108;77.66332;;3063.1360279499304;;85.55161;;0 / 23;1834;2016-11-30 15:59:29:658
7.508;16.855;-0.459;1.9613;9.3707;-2.1384;4.7807;5.952;0.4631;-0.2133;-0.1183;0.5329;2.5;28.38;-11.81;18.0;103.18;-73.05;-139.64;0.0;57.583;12.845108;77.66332;;3063.1360279499304;;85.55161;;0 / 23;1839;2016-11-30 15:59:29:663
7.508;16.855;-0.459;1.9613;9.3707;-2.1384;4.7807;5.952;0.4631;-0.8255;-0.0813;0.6853;2.5;28.38;-11.81;18.0;103.18;-73.05;-139.64;0.0;57.583;12.845108;77.66332;;3063.1360279499304;;85.55161;;0 / 23;1844;2016-11-30 15:59:29:668
5.976;10.879;-3.064;1.9613;9.3707;-2.1384;4.7807;5.952;0.4631;-0.8255;-0.0813;0.6853;2.5;28.38;-11.81;18.0;103.18;-73.05;-139.64;0.0;57.583;12.845108;77.66332;;3063.1360279499304;;85.55161;;0 / 23;1849;2016-11-30 15:59:29:673
5.976;10.879;-3.064;2.0566;9.3843;-1.9885;6.8237;2.4108;0.3133;-1.0085;-0.1124;0.5607;2.5;28.5;-12.19;17.56;103.18;-73.05;-139.64;0.0;57.583;12.845108;77.66332;;3063.1360279499304;;85.55161;;0 / 23;1855;2016-11-30 15:59:29:679
5.976;10.879;-3.064;2.0566;9.3843;-1.9885;6.8237;2.4108;0.3133;-1.0085;-0.1124;0.5607;2.5;28.5;-12.19;17.56;103.18;-73.05;-139.64;0.0;57.583;12.845108;77.66332;;3063.1360279499304;;85.55161;;0 / 23;1860;2016-11-30 15:59:29:684
5.976;10.879;-3.064;2.0566;9.3843;-1.9885;6.8237;2.4108;0.3133;-1.0085;-0.1124;0.5607;2.5;28.5;-12.19;17.56;103.18;-73.05;-139.64;0.0;57.583;12.845108;77.66332;;3063.1360279499304;;85.55161;;0 / 23;1865;2016-11-30 15:59:29:689
4.137;13.331;0.0;2.0566;9.3843;-1.9885;6.8237;2.4108;0.3133;-1.0085;-0.1124;0.5607;2.5;28.5;-12.19;17.56;103.18;-73.05;-139.64;0.0;57.583;12.845108;77.66332;;3063.1360279499304;;85.55161;;0 / 23;1870;2016-11-30 15:59:29:694
4.137;13.331;0.0;2.1384;9.4115;-1.7434;0.3133;2.6968;0.2179;-0.8061;-0.5479;0.4521;2.5;29.19;-11.87;15.44;113.52;-73.05;-134.04;0.0;57.583;12.845108;77.66332;;3063.1360279499304;;85.55161;;0 / 23;1875;2016-11-30 15:59:29:699
4.137;13.331;0.0;2.1384;9.4115;-1.7434;0.3133;2.6968;0.2179;-0.8061;-0.5479;0.4521;2.5;29.19;-11.87;15.44;113.52;-73.05;-134.04;0.0;57.583;12.845108;77.66332;;3063.1360279499304;;85.55161;;0 / 23;1880;2016-11-30 15:59:29:704
4.137;13.331;0.0;2.1384;9.4115;-1.7434;0.3133;2.6968;0.2179;-0.8061;-0.5479;0.4521;2.5;29.19;-11.87;15.44;113.52;-73.05;-134.04;0.0;57.583;12.845108;77.66332;;3063.1360279499304;;85.55161;;0 / 23;1885;2016-11-30 15:59:29:709
0.766;10.726;-1.685;2.1384;9.4115;-1.7434;0.3133;2.6968;0.2179;-0.8061;-0.5479;0.4521;2.5;29.19;-11.87;15.44;113.52;-73.05;-134.04;0.0;57.583;12.845108;77.66332;;3063.1360279499304;;85.55161;;0 / 23;1889;2016-11-30 15:59:29:713
0.766;10.726;-1.685;2.1928;9.4251;-1.6344;-1.4301;1.3075;-0.0408;-0.8795;-0.7701;0.4052;2.5;30.0;-11.5;15.19;113.52;-73.05;-134.04;0.0;57.583;12.845108;77.66332;;3063.1360279499304;;85.55161;;0 / 23;1894;2016-11-30 15:59:29:718
0.766;10.726;-1.685;2.1928;9.4251;-1.6344;-1.4301;1.3075;-0.0408;-0.8795;-0.7701;0.4052;2.5;30.0;-11.5;15.19;113.52;-73.05;-134.04;0.0;57.583;12.845108;77.66332;;3063.1360279499304;;85.55161;;0 / 23;1900;2016-11-30 15:59:29:724
0.766;10.726;-1.685;2.1928;9.4251;-1.6344;-1.4301;1.3075;-0.0408;-1.1841;-0.6973;-0.0114;2.5;30.0;-11.5;15.19;113.52;-73.05;-134.04;0.0;57.583;12.845108;77.66332;;3063.1360279499304;;85.55161;;0 / 23;1905;2016-11-30 15:59:29:729
-0.765;11.8;-0.458;2.1928;9.4251;-1.6344;-1.4301;1.3075;-0.0408;-1.1841;-0.6973;-0.0114;2.5;30.0;-11.5;15.19;113.52;-73.05;-134.04;0.0;57.583;12.845108;77.66332;;3063.1360279499304;;85.55161;;0 / 23;1909;2016-11-30 15:59:29:733
-0.765;11.8;-0.458;2.152;9.466;-1.4437;-3.8273;2.1792;0.8444;-1.2956;-0.8274;-0.1437;2.5;30.69;-9.5;12.63;123.16;-73.82;-126.7;0.0;57.583;12.845108;77.66332;;3063.1360279499304;;85.55161;;0 / 23;1915;2016-11-30 15:59:29:739
-0.765;11.8;-0.458;2.152;9.466;-1.4437;-3.8273;2.1792;0.8444;-1.2956;-0.8274;-0.1437;2.5;30.69;-9.5;12.63;123.16;-73.82;-126.7;0.0;57.583;12.845108;77.66332;;3063.1360279499304;;85.55161;;0 / 23;1919;2016-11-30 15:59:29:743
-0.765;11.8;-0.458;2.152;9.466;-1.4437;-3.8273;2.1792;0.8444;-1.1994;-1.0161;-0.258;2.5;31.06;-8.06;11.19;123.16;-73.82;-126.7;0.0;57.583;12.845108;77.66332;;3063.1360279499304;;85.55161;;0 / 23;1925;2016-11-30 15:59:29:749
-0.765;11.8;-0.458;2.152;9.466;-1.4437;-3.8273;2.1792;0.8444;-1.1994;-1.0161;-0.258;2.5;31.06;-8.06;11.19;123.16;-73.82;-126.7;0.0;61.09;12.845108;77.66332;;3063.1360279499304;;85.55161;;0 / 23;1929;2016-11-30 15:59:29:753
-5.363;12.258;0.919;2.0839;9.5069;-1.2803;-7.4502;2.7513;2.1928;-1.1994;-1.0161;-0.258;2.5;31.06;-8.06;11.19;123.16;-73.82;-126.7;0.0;61.09;12.845108;77.66332;;3063.1360279499304;;85.55161;;0 / 23;1935;2016-11-30 15:59:29:759
-5.363;12.258;0.919;2.0839;9.5069;-1.2803;-7.4502;2.7513;2.1928;-1.1994;-1.0161;-0.258;2.5;31.06;-8.06;11.19;123.16;-73.82;-126.7;0.0;61.09;12.845108;77.66332;;3063.1360279499304;;85.55161;;0 / 23;1939;2016-11-30 15:59:29:763
-5.363;12.258;0.919;2.0839;9.5069;-1.2803;-7.4502;2.7513;2.1928;-1.3341;-1.3428;-0.8244;2.5;31.75;-6.94;10.0;123.16;-73.82;-126.7;0.0;61.09;12.845108;77.66332;;3063.1360279499304;;85.55161;;0 / 23;1945;2016-11-30 15:59:29:769
-4.597;14.097;0.306;2.0839;9.5069;-1.2803;-7.4502;2.7513;2.1928;-1.3341;-1.3428;-0.8244;2.5;31.75;-6.94;10.0;123.16;-73.82;-126.7;0.0;61.09;12.845108;77.66332;;3063.1360279499304;;85.55161;;0 / 23;1950;2016-11-30 15:59:29:774
-4.597;14.097;0.306;1.8932;9.5613;-1.1032;-6.7964;3.7728;1.2531;-1.3341;-1.3428;-0.8244;2.5;31.75;-6.94;10.0;123.16;-73.82;-126.7;0.0;61.09;12.845108;77.66332;;3063.1360279499304;;85.55161;;0 / 23;1955;2016-11-30 15:59:29:779
-4.597;14.097;0.306;1.8932;9.5613;-1.1032;-6.7964;3.7728;1.2531;-1.3341;-1.3428;-0.8244;2.5;31.75;-6.94;10.0;123.16;-73.82;-126.7;0.0;61.09;12.845108;77.66332;;3063.1360279499304;;85.55161;;0 / 23;1960;2016-11-30 15:59:29:784
-4.597;14.097;0.306;1.8932;9.5613;-1.1032;-6.7964;3.7728;1.2531;-1.1835;-1.4254;-1.0488;2.5;32.56;-5.87;9.25;135.38;-77.09;-120.23;0.0;61.09;12.845108;77.66332;;3063.1360279499304;;85.55161;;0 / 23;1965;2016-11-30 15:59:29:789
-3.83;13.024;-1.838;1.8932;9.5613;-1.1032;-6.7964;3.7728;1.2531;-1.1835;-1.4254;-1.0488;2.5;32.56;-5.87;9.25;135.38;-77.09;-120.23;0.0;61.09;12.845108;77.66332;;3063.1360279499304;;85.55161;;0 / 23;1969;2016-11-30 15:59:29:793
-3.83;13.024;-1.838;1.6753;9.6158;-0.9534;-5.5025;3.2552;0.6538;-1.1236;-1.4841;-1.0374;2.5;32.56;-5.87;9.25;135.38;-77.09;-120.23;0.0;61.09;12.845108;77.66332;;3063.1360279499304;;85.55161;;0 / 23;1975;2016-11-30 15:59:29:799
-3.83;13.024;-1.838;1.6753;9.6158;-0.9534;-5.5025;3.2552;0.6538;-1.1236;-1.4841;-1.0374;2.5;32.56;-5.87;9.25;135.38;-77.09;-120.23;0.0;61.09;12.845108;77.66332;;3063.1360279499304;;85.55161;;0 / 23;1980;2016-11-30 15:59:29:804
-3.83;13.024;-1.838;1.6753;9.6158;-0.9534;-5.5025;3.2552;0.6538;-0.7202;-1.6444;-1.1279;2.5;34.19;-4.06;8.06;135.38;-77.09;-120.23;0.0;61.09;12.845108;77.66332;;3063.1360279499304;;85.55161;;0 / 23;1984;2016-11-30 15:59:29:808
-1.838;14.25;0.306;1.6753;9.6158;-0.9534;-5.5025;3.2552;0.6538;-0.7202;-1.6444;-1.1279;2.5;34.19;-4.06;8.06;135.38;-77.09;-120.23;0.0;61.09;12.845108;77.66332;;3063.1360279499304;;85.55161;;0 / 23;1990;2016-11-30 15:59:29:814
-1.838;14.25;0.306;1.4846;9.6567;-0.8717;-3.7728;4.4402;0.8717;-0.7172;-1.6823;-0.7437;2.5;34.19;-4.06;8.06;135.38;-77.09;-120.23;0.0;61.09;12.845108;77.66332;;3063.1360279499304;;85.55161;;0 / 23;1995;2016-11-30 15:59:29:819
-1.838;14.25;0.306;1.4846;9.6567;-0.8717;-3.7728;4.4402;0.8717;-0.7172;-1.6823;-0.7437;2.5;34.19;-4.06;8.06;135.38;-77.09;-120.23;0.0;61.09;12.845108;77.66332;;3063.1360279499304;;85.55161;;0 / 23;2000;2016-11-30 15:59:29:824
-1.838;14.25;0.306;1.4846;9.6567;-0.8717;-3.7728;4.4402;0.8717;-0.9531;-1.6065;-0.1472;2.5;34.56;-3.81;7.38;138.58;-79.89;-120.42;0.0;61.09;12.845108;77.66332;;3063.1360279499304;;85.55161;;0 / 23;2005;2016-11-30 15:59:29:829
-1.071;13.485;-0.611;1.4846;9.6567;-0.8717;-3.7728;4.4402;0.8717;-0.9531;-1.6065;-0.1472;2.5;34.56;-3.81;7.38;138.58;-79.89;-120.42;0.0;61.09;12.845108;77.66332;;3063.1360279499304;;85.55161;;0 / 23;2010;2016-11-30 15:59:29:834
-1.071;13.485;-0.611;1.3075;9.6975;-0.7219;-2.3699;3.7864;0.1226;-0.7186;-1.6444;-0.9526;2.5;34.56;-3.81;7.38;138.58;-79.89;-120.42;0.0;61.09;12.845108;77.66332;;3063.1360279499304;;85.55161;;0 / 23;2014;2016-11-30 15:59:29:838
-1.071;13.485;-0.611;1.3075;9.6975;-0.7219;-2.3699;3.7864;0.1226;-0.7186;-1.6444;-0.9526;2.5;34.56;-3.81;7.38;138.58;-79.89;-120.42;0.0;61.09;12.845108;77.66332;;3063.1360279499304;;85.55161;;0 / 23;2020;2016-11-30 15:59:29:844
-1.071;13.485;-0.611;1.3075;9.6975;-0.7219;-2.3699;3.7864;0.1226;-0.6046;-1.6491;-1.3941;2.5;35.31;-4.75;6.88;138.58;-79.89;-120.42;0.0;61.09;12.845108;77.66332;;3063.1360279499304;;85.55161;;0 / 23;2025;2016-11-30 15:59:29:849
-0.306;12.718;-3.677;1.3075;9.6975;-0.7219;-2.3699;3.7864;0.1226;-0.6046;-1.6491;-1.3941;2.5;35.31;-4.75;6.88;138.58;-79.89;-120.42;0.0;61.09;12.845108;77.66332;;3063.1360279499304;;85.55161;;0 / 23;2029;2016-11-30 15:59:29:853
-0.306;12.718;-3.677;1.0351;9.7384;-0.6674;-1.3348;2.9828;-3.01;-0.4982;-1.6027;-1.5326;2.5;35.31;-4.75;6.88;138.58;-79.89;-120.42;0.0;61.09;12.845108;77.66332;;3063.1360279499304;;85.55161;;0 / 23;2034;2016-11-30 15:59:29:858
-0.306;12.718;-3.677;1.0351;9.7384;-0.6674;-1.3348;2.9828;-3.01;-0.4982;-1.6027;-1.5326;2.5;35.31;-4.75;6.88;138.58;-79.89;-120.42;0.0;61.09;12.845108;77.66332;;3063.1360279499304;;85.55161;;0 / 23;2039;2016-11-30 15:59:29:863
-0.306;12.718;-3.677;1.0351;9.7384;-0.6674;-1.3348;2.9828;-3.01;-0.429;-1.579;-1.429;2.5;35.81;-5.19;7.5;135.12;-82.79;-122.81;0.0;61.09;12.845108;77.66332;;3063.1360279499304;;85.55161;;0 / 23;2044;2016-11-30 15:59:29:868
1.533;11.8;-4.596;1.0351;9.7384;-0.6674;-1.3348;2.9828;-3.01;-0.429;-1.579;-1.429;2.5;35.81;-5.19;7.5;135.12;-82.79;-122.81;0.0;61.09;12.845108;77.66332;;3063.1360279499304;;85.55161;;0 / 23;2050;2016-11-30 15:59:29:874
1.533;11.8;-4.596;0.7763;9.7656;-0.6265;0.7491;2.0294;-3.9635;-0.3491;-1.5656;-1.3919;2.5;35.81;-5.19;7.5;135.12;-82.79;-122.81;0.0;61.09;12.845108;77.66332;;3063.1360279499304;;85.55161;;0 / 23;2054;2016-11-30 15:59:29:878
1.533;11.8;-4.596;0.7763;9.7656;-0.6265;0.7491;2.0294;-3.9635;-0.3491;-1.5656;-1.3919;2.5;35.81;-5.19;7.5;135.12;-82.79;-122.81;0.0;61.09;12.845108;77.66332;;3063.1360279499304;;85.55161;;0 / 23;2059;2016-11-30 15:59:29:883
1.533;11.8;-4.596;0.7763;9.7656;-0.6265;0.7491;2.0294;-3.9635;-0.0303;-1.624;-1.5122;2.5;34.69;-6.19;6.88;135.12;-82.79;-122.81;0.0;61.09;12.845108;77.66332;;3063.1360279499304;;85.55161;;0 / 23;2065;2016-11-30 15:59:29:889
8.121;8.121;-6.129;0.7763;9.7656;-0.6265;0.7491;2.0294;-3.9635;-0.0303;-1.624;-1.5122;2.5;34.69;-6.19;6.88;135.12;-82.79;-122.81;0.0;61.09;12.845108;77.66332;;3063.1360279499304;;85.55161;;0 / 23;2070;2016-11-30 15:59:29:894
8.121;8.121;-6.129;0.4767;9.7793;-0.6538;3.6502;-0.286;-3.4731;0.1203;-1.69;-1.5323;2.5;34.69;-6.19;6.88;135.12;-82.79;-122.81;0.0;61.09;12.845108;77.66332;;3063.1360279499304;;85.55161;;0 / 23;2075;2016-11-30 15:59:29:899
8.121;8.121;-6.129;0.4767;9.7793;-0.6538;3.6502;-0.286;-3.4731;0.1203;-1.69;-1.5323;2.5;34.69;-6.19;6.88;135.12;-82.79;-122.81;0.0;61.09;12.845108;77.66332;;3063.1360279499304;;85.55161;;0 / 23;2079;2016-11-30 15:59:29:903
8.121;8.121;-6.129;0.4767;9.7793;-0.6538;3.6502;-0.286;-3.4731;0.4933;-1.762;-0.9689;2.5;34.44;-6.5;7.06;115.13;-85.27;-143.9;0.0;61.09;12.845108;77.66332;;3063.1360279499304;;85.55161;;0 / 23;2084;2016-11-30 15:59:29:908
8.121;8.121;-6.129;0.4767;9.7793;-0.6538;3.6502;-0.286;-3.4731;0.4933;-1.762;-0.9689;2.5;34.44;-6.5;7.06;115.13;-85.27;-143.9;0.0;61.09;12.845108;77.66332;;3063.1360279499304;;85.55161;;0 / 23;2090;2016-11-30 15:59:29:914
3.371;7.661;-3.064;0.3133;9.7793;-0.79;6.8918;-3.5004;-3.9498;0.8279;-1.7873;-0.6659;2.5;34.44;-6.5;7.06;115.13;-85.27;-143.9;0.0;61.09;12.845108;77.66332;;3063.1360279499304;;85.55161;;0 / 23;2095;2016-11-30 15:59:29:919
3.371;7.661;-3.064;0.3133;9.7793;-0.79;6.8918;-3.5004;-3.9498;0.8279;-1.7873;-0.6659;2.5;34.44;-6.5;7.06;115.13;-85.27;-143.9;0.0;61.09;12.845108;77.66332;;3063.1360279499304;;85.55161;;0 / 23;2100;2016-11-30 15:59:29:924
3.371;7.661;-3.064;0.3133;9.7793;-0.79;6.8918;-3.5004;-3.9498;0.7589;-1.6962;-0.5678;2.5;33.88;-6.75;7.19;115.13;-85.27;-143.9;0.0;61.09;12.845108;77.66332;;3063.1360279499304;;85.55161;;0 / 23;2104;2016-11-30 15:59:29:928
3.371;7.661;-3.064;0.3133;9.7793;-0.79;6.8918;-3.5004;-3.9498;0.7589;-1.6962;-0.5678;2.5;33.88;-6.75;7.19;115.13;-85.27;-143.9;0.0;61.09;12.845108;77.66332;;3063.1360279499304;;85.55161;;0 / 23;2110;2016-11-30 15:59:29:934
2.451;9.807;-3.064;0.1907;9.7656;-0.9262;2.5606;-0.572;-0.4495;0.7148;-1.6109;-0.4873;2.5;33.88;-6.75;7.19;115.13;-85.27;-143.9;0.0;61.09;12.845108;77.66332;;3063.1360279499304;;85.55161;;0 / 23;2115;2016-11-30 15:59:29:939
2.451;9.807;-3.064;0.1907;9.7656;-0.9262;2.5606;-0.572;-0.4495;0.7148;-1.6109;-0.4873;2.5;33.88;-6.75;7.19;115.13;-85.27;-143.9;0.0;61.09;12.845108;77.66332;;3063.1360279499304;;85.55161;;0 / 23;2119;2016-11-30 15:59:29:943
2.451;9.807;-3.064;0.1907;9.7656;-0.9262;2.5606;-0.572;-0.4495;0.6479;-1.4612;-0.249;2.5;33.13;-6.37;6.69;90.64;-84.47;-168.37;0.0;61.09;12.845108;77.66332;;3063.1360279499304;;85.55161;;0 / 23;2124;2016-11-30 15:59:29:948
1.532;10.573;-1.685;0.1907;9.7656;-0.9262;2.5606;-0.572;-0.4495;0.6479;-1.4612;-0.249;2.5;33.13;-6.37;6.69;90.64;-84.47;-168.37;0.0;61.09;12.845108;77.66332;;3063.1360279499304;;85.55161;;0 / 23;2129;2016-11-30 15:59:29:953
1.532;10.573;-1.685;0.0953;9.752;-1.0487;1.5799;0.5176;-0.6265;0.6479;-1.4612;-0.249;2.5;33.13;-6.37;6.69;90.64;-84.47;-168.37;0.0;61.09;12.845108;77.66332;;3063.1360279499304;;85.55161;;0 / 23;2135;2016-11-30 15:59:29:959
1.532;10.573;-1.685;0.0953;9.752;-1.0487;1.5799;0.5176;-0.6265;0.6479;-1.4612;-0.249;2.5;33.13;-6.37;6.69;90.64;-84.47;-168.37;0.0;61.09;12.845108;77.66332;;3063.1360279499304;;85.55161;;0 / 23;2139;2016-11-30 15:59:29:963
1.532;10.573;-1.685;0.0953;9.752;-1.0487;1.5799;0.5176;-0.6265;0.5749;-1.2574;0.1254;2.5;32.38;-6.81;5.94;90.64;-84.47;-168.37;0.0;61.09;12.845108;77.66332;;3063.1360279499304;;85.55161;;0 / 23;2144;2016-11-30 15:59:29:968
0.767;9.808;-1.224;0.0953;9.752;-1.0487;1.5799;0.5176;-0.6265;0.5749;-1.2574;0.1254;2.5;32.38;-6.81;5.94;90.64;-84.47;-168.37;0.0;61.09;12.845108;77.66332;;3063.1360279499304;;85.55161;;0 / 23;2150;2016-11-30 15:59:29:974
0.767;9.808;-1.224;0.0953;9.7384;-1.2258;0.6674;0.0681;0.0;0.5749;-1.2574;0.1254;2.5;32.38;-6.81;5.94;90.64;-84.47;-168.37;0.0;61.09;12.845108;77.66332;;3063.1360279499304;;85.55161;;0 / 23;2155;2016-11-30 15:59:29:979
0.767;9.808;-1.224;0.0953;9.7384;-1.2258;0.6674;0.0681;0.0;0.5749;-1.2574;0.1254;2.5;32.38;-6.81;5.94;90.64;-84.47;-168.37;0.0;61.09;12.845108;77.66332;;3063.1360279499304;;85.55161;;0 / 23;2160;2016-11-30 15:59:29:984
0.767;9.808;-1.224;0.0953;9.7384;-1.2258;0.6674;0.0681;0.0;0.5923;-0.9689;0.6921;2.5;32.81;-7.0;5.88;85.68;-82.8;-175.55;0.0;61.09;12.845108;77.66332;;3063.1360279499304;;85.55161;;0 / 23;2164;2016-11-30 15:59:29:988
1.225;9.347;-2.604;0.0953;9.7384;-1.2258;0.6674;0.0681;0.0;0.5923;-0.9689;0.6921;2.5;32.81;-7.0;5.88;85.68;-82.8;-175.55;0.0;61.09;12.845108;77.66332;;3063.1360279499304;;85.55161;;0 / 23;2170;2016-11-30 15:59:29:994
1.225;9.347;-2.604;0.2179;9.7112;-1.3348;1.0079;-0.3677;-1.2667;0.6575;-0.9449;0.9182;2.5;32.81;-7.0;5.88;85.68;-82.8;-175.55;0.0;61.09;12.845108;77.66332;;3063.1360279499304;;85.55161;;0 / 23;2174;2016-11-30 15:59:29:998
1.225;9.347;-2.604;0.2179;9.7112;-1.3348;1.0079;-0.3677;-1.2667;0.6575;-0.9449;0.9182;2.5;32.81;-7.0;5.88;85.68;-82.8;-175.55;0.0;61.09;12.845108;77.66332;;3063.1360279499304;;85.55161;;0 / 23;2180;2016-11-30 15:59:30:004
1.225;9.347;-2.604;0.2179;9.7112;-1.3348;1.0079;-0.3677;-1.2667;0.6499;-0.9067;1.0047;2.5;33.31;-6.06;5.06;85.68;-82.8;-175.55;0.0;61.09;12.845108;77.66332;;3063.1360279499304;;85.55161;;0 / 23;2184;2016-11-30 15:59:30:008
0.459;9.5;-2.451;0.2179;9.7112;-1.3348;1.0079;-0.3677;-1.2667;0.6499;-0.9067;1.0047;2.5;33.31;-6.06;5.06;85.68;-82.8;-175.55;0.0;61.09;12.845108;77.66332;;3063.1360279499304;;85.55161;;0 / 23;2190;2016-11-30 15:59:30:014
0.459;9.5;-2.451;0.395;9.6975;-1.4574;0.0545;-0.2043;-0.9943;0.642;-0.8702;1.0985;2.5;33.31;-6.06;5.06;85.68;-82.8;-175.55;0.0;61.09;12.845108;77.66332;;3063.1360279499304;;85.55161;;0 / 23;2194;2016-11-30 15:59:30:018
0.459;9.5;-2.451;0.395;9.6975;-1.4574;0.0545;-0.2043;-0.9943;0.642;-0.8702;1.0985;2.5;33.31;-6.06;5.06;85.68;-82.8;-175.55;0.0;61.09;12.845108;77.66332;;3063.1360279499304;;85.55161;;0 / 23;2200;2016-11-30 15:59:30:024
0.459;9.5;-2.451;0.395;9.6975;-1.4574;0.0545;-0.2043;-0.9943;0.7011;-0.8105;1.1323;2.5;33.63;-6.19;5.13;98.24;-81.15;-164.84;0.0;61.09;12.845108;77.66332;;3063.1360279499304;;85.55161;;0 / 23;2205;2016-11-30 15:59:30:029
0.612;9.04;-3.217;0.395;9.6975;-1.4574;0.0545;-0.2043;-0.9943;0.7011;-0.8105;1.1323;2.5;33.63;-6.19;5.13;98.24;-81.15;-164.84;0.0;61.09;12.845108;77.66332;;3063.1360279499304;;85.55161;;0 / 23;2210;2016-11-30 15:59:30:034
0.612;9.04;-3.217;0.5857;9.6567;-1.6072;0.0136;-0.4631;-1.6072;0.8525;-0.7917;1.2029;2.5;33.63;-6.19;5.13;98.24;-81.15;-164.84;0.0;61.09;12.845108;77.66332;;3063.1360279499304;;85.55161;;0 / 23;2215;2016-11-30 15:59:30:039
0.612;9.04;-3.217;0.5857;9.6567;-1.6072;0.0136;-0.4631;-1.6072;0.8525;-0.7917;1.2029;2.5;33.63;-6.19;5.13;98.24;-81.15;-164.84;0.0;61.09;12.845108;77.66332;;3063.1360279499304;;85.55161;;0 / 23;2220;2016-11-30 15:59:30:044
0.612;9.04;-3.217;0.681;9.6431;-1.7025;0.2315;-0.9125;-1.362;1.0101;-0.7652;1.2694;2.5;34.63;-5.56;4.25;98.24;-81.15;-164.84;0.0;61.09;12.845108;77.66332;;3063.1360279499304;;85.55161;;0 / 23;2225;2016-11-30 15:59:30:049
1.532;7.968;-2.911;0.681;9.6431;-1.7025;0.2315;-0.9125;-1.362;1.0101;-0.7652;1.2694;2.5;34.63;-5.56;4.25;98.24;-81.15;-164.84;0.0;67.076;12.845108;77.66332;;3063.1360279499304;;85.55161;;0 / 23;2229;2016-11-30 15:59:30:053
1.532;7.968;-2.911;0.681;9.6431;-1.7025;0.2315;-0.9125;-1.362;1.0101;-0.7652;1.2694;2.5;34.63;-5.56;4.25;98.24;-81.15;-164.84;0.0;67.076;12.845108;77.66332;;3063.1360279499304;;85.55161;;0 / 23;2234;2016-11-30 15:59:30:058
1.532;7.968;-2.911;0.681;9.6431;-1.7025;0.2315;-0.9125;-1.362;1.0101;-0.7652;1.2694;2.5;34.63;-5.56;4.25;98.24;-81.15;-164.84;0.0;67.076;12.845108;77.66332;;3063.1360279499304;;85.55161;;0 / 23;2240;2016-11-30 15:59:30:064
1.532;7.968;-2.911;0.8853;9.5886;-1.9068;0.79;-2.3835;-0.9943;1.0747;-0.6512;1.2959;2.5;35.13;-5.12;4.19;106.48;-79.23;-158.2;0.0;67.076;12.845108;77.66332;;3063.1360279499304;;85.55161;;0 / 23;2245;2016-11-30 15:59:30:069
1.685;6.129;-2.758;0.8853;9.5886;-1.9068;0.79;-2.3835;-0.9943;1.0747;-0.6512;1.2959;2.5;35.13;-5.12;4.19;106.48;-79.23;-158.2;0.0;67.076;12.845108;77.66332;;3063.1360279499304;;85.55161;;0 / 23;2249;2016-11-30 15:59:30:073
1.685;6.129;-2.758;0.8853;9.5886;-1.9068;0.79;-2.3835;-0.9943;1.0747;-0.6512;1.2959;2.5;35.13;-5.12;4.19;106.48;-79.23;-158.2;0.0;67.076;12.845108;77.66332;;3063.1360279499304;;85.55161;;0 / 23;2255;2016-11-30 15:59:30:079
1.685;6.129;-2.758;0.8853;9.5886;-1.9068;0.79;-2.3835;-0.9943;1.0747;-0.6512;1.2959;2.5;35.13;-5.12;4.19;106.48;-79.23;-158.2;0.0;67.076;12.845108;77.66332;;3063.1360279499304;;85.55161;;0 / 23;2260;2016-11-30 15:59:30:084
1.685;6.129;-2.758;1.1168;9.5205;-2.1111;0.4086;-4.0043;-0.6401;1.042;-0.6597;1.4192;2.5;35.56;-5.25;3.19;106.48;-79.23;-158.2;0.0;67.076;12.845108;77.66332;;3063.1360279499304;;85.55161;;0 / 23;2265;2016-11-30 15:59:30:089
1.072;4.75;-3.217;1.1168;9.5205;-2.1111;0.4086;-4.0043;-0.6401;1.042;-0.6597;1.4192;2.5;35.56;-5.25;3.19;106.48;-79.23;-158.2;0.0;67.076;12.845108;77.66332;;3063.1360279499304;;85.55161;;0 / 23;2270;2016-11-30 15:59:30:094
1.072;4.75;-3.217;1.1168;9.5205;-2.1111;0.4086;-4.0043;-0.6401;0.9809;-0.6741;1.4257;2.5;35.56;-5.25;3.19;106.48;-79.23;-158.2;0.0;67.076;12.845108;77.66332;;3063.1360279499304;;85.55161;;0 / 23;2275;2016-11-30 15:59:30:099
1.072;4.75;-3.217;1.1168;9.5205;-2.1111;0.4086;-4.0043;-0.6401;0.9809;-0.6741;1.4257;2.5;35.56;-5.25;3.19;106.48;-79.23;-158.2;0.0;67.076;12.845108;77.66332;;3063.1360279499304;;85.55161;;0 / 23;2280;2016-11-30 15:59:30:104
1.072;4.75;-3.217;1.3348;9.4388;-2.3018;-0.4222;-4.8488;-1.0624;0.9264;-0.7126;1.4017;2.5;35.31;-5.81;2.81;114.54;-75.92;-152.12;0.0;67.076;12.845108;77.66332;;3063.1360279499304;;85.55161;;0 / 23;2285;2016-11-30 15:59:30:109
0.612;5.056;-4.137;1.3348;9.4388;-2.3018;-0.4222;-4.8488;-1.0624;0.9264;-0.7126;1.4017;2.5;35.31;-5.81;2.81;114.54;-75.92;-152.12;0.0;67.076;12.845108;77.66332;;3063.1360279499304;;85.55161;;0 / 23;2289;2016-11-30 15:59:30:113
0.612;5.056;-4.137;1.3348;9.4388;-2.3018;-0.4222;-4.8488;-1.0624;0.8939;-0.6586;1.3221;2.5;35.31;-5.81;2.81;114.54;-75.92;-152.12;0.0;67.076;12.845108;77.66332;;3063.1360279499304;;85.55161;;0 / 23;2295;2016-11-30 15:59:30:119
0.612;5.056;-4.137;1.3348;9.4388;-2.3018;-0.4222;-4.8488;-1.0624;0.8939;-0.6586;1.3221;2.5;35.31;-5.81;2.81;114.54;-75.92;-152.12;0.0;67.076;12.845108;77.66332;;3063.1360279499304;;85.55161;;0 / 23;2300;2016-11-30 15:59:30:124
0.612;5.056;-4.137;1.5255;9.3707;-2.4789;-0.9262;-3.8545;-2.2609;0.8784;-0.6272;1.21;2.5;35.94;-6.81;2.31;114.54;-75.92;-152.12;0.0;67.076;12.845108;77.66332;;3063.1360279499304;;85.55161;;0 / 23;2304;2016-11-30 15:59:30:128
0.612;6.589;-5.363;1.5255;9.3707;-2.4789;-0.9262;-3.8545;-2.2609;0.8784;-0.6272;1.21;2.5;35.94;-6.81;2.31;114.54;-75.92;-152.12;0.0;67.076;12.845108;77.66332;;3063.1360279499304;;85.55161;;0 / 23;2309;2016-11-30 15:59:30:133
0.612;6.589;-5.363;1.5255;9.3707;-2.4789;-0.9262;-3.8545;-2.2609;0.7265;-0.7467;0.5304;2.5;35.94;-6.81;2.31;114.54;-75.92;-152.12;0.0;67.076;12.845108;77.66332;;3063.1360279499304;;85.55161;;0 / 23;2314;2016-11-30 15:59:30:138
0.612;6.589;-5.363;1.5255;9.3707;-2.4789;-0.9262;-3.8545;-2.2609;0.7265;-0.7467;0.5304;2.5;35.94;-6.81;2.31;114.54;-75.92;-152.12;0.0;67.076;12.845108;77.66332;;3063.1360279499304;;85.55161;;0 / 23;2320;2016-11-30 15:59:30:144
0.612;6.589;-5.363;1.5391;9.3298;-2.6151;-0.7763;-2.438;-2.9011;0.664;-0.859;0.0614;2.5;36.25;-7.44;2.0;120.22;-72.74;-148.39;0.0;67.076;12.845108;77.66332;;3063.1360279499304;;85.55161;;0 / 23;2324;2016-11-30 15:59:30:148
1.225;7.968;-5.976;1.5391;9.3298;-2.6151;-0.7763;-2.438;-2.9011;0.664;-0.859;0.0614;2.5;36.25;-7.44;2.0;120.22;-72.74;-148.39;0.0;67.076;12.845108;77.66332;;3063.1360279499304;;85.55161;;0 / 23;2330;2016-11-30 15:59:30:154
1.225;7.968;-5.976;1.5391;9.3298;-2.6151;-0.7763;-2.438;-2.9011;0.664;-0.859;0.0614;2.5;36.25;-7.44;2.0;120.22;-72.74;-148.39;0.0;67.076;12.845108;77.66332;;3063.1360279499304;;85.55161;;0 / 23;2335;2016-11-30 15:59:30:159
1.225;7.968;-5.976;1.5391;9.3298;-2.6151;-0.7763;-2.438;-2.9011;0.664;-0.859;0.0614;2.5;36.25;-7.44;2.0;120.22;-72.74;-148.39;0.0;67.076;12.845108;77.66332;;3063.1360279499304;;85.55161;;0 / 23;2340;2016-11-30 15:59:30:164
1.225;7.968;-5.976;1.4982;9.3026;-2.7513;-0.1226;-1.185;-3.3778;0.5721;-0.8866;0.0431;2.5;35.56;-7.69;0.38;120.22;-72.74;-148.39;0.0;67.076;12.845108;77.66332;;3063.1360279499304;;85.55161;;0 / 23;2345;2016-11-30 15:59:30:169
1.225;7.968;-5.976;1.4982;9.3026;-2.7513;-0.1226;-1.185;-3.3778;0.5721;-0.8866;0.0431;2.5;35.56;-7.69;0.38;120.22;-72.74;-148.39;0.0;67.076;12.845108;77.66332;;3063.1360279499304;;85.55161;;0 / 23;2349;2016-11-30 15:59:30:173
1.225;7.968;-5.976;1.4982;9.3026;-2.7513;-0.1226;-1.185;-3.3778;0.6177;-0.9517;0.0428;2.5;35.56;-7.69;0.38;120.22;-72.74;-148.39;0.0;67.076;12.845108;77.66332;;3063.1360279499304;;85.55161;;0 / 23;2355;2016-11-30 15:59:30:179
1.379;7.968;-6.435;1.4982;9.3026;-2.7513;-0.1226;-1.185;-3.3778;0.6177;-0.9517;0.0428;2.5;35.56;-7.69;0.38;120.22;-72.74;-148.39;0.0;67.076;12.845108;77.66332;;3063.1360279499304;;85.55161;;0 / 23;2360;2016-11-30 15:59:30:184
1.379;7.968;-6.435;1.4301;9.2208;-3.0237;-0.3677;-1.7161;-3.405;1.2348;-1.2558;0.108;2.5;34.94;-8.62;-1.0;122.89;-71.39;-151.43;0.0;67.076;12.845108;77.66332;;3063.1360279499304;;85.55161;;0 / 23;2365;2016-11-30 15:59:30:189
1.072;7.048;-6.589;1.4301;9.2208;-3.0237;-0.3677;-1.7161;-3.405;1.2348;-1.2558;0.108;2.5;34.94;-8.62;-1.0;122.89;-71.39;-151.43;0.0;67.076;12.845108;77.66332;;3063.1360279499304;;85.55161;;0 / 23;2372;2016-11-30 15:59:30:196
1.072;7.048;-6.589;1.4301;9.2208;-3.0237;-0.3677;-1.7161;-3.405;1.2348;-1.2558;0.108;2.5;34.94;-8.62;-1.0;122.89;-71.39;-151.43;0.0;67.076;12.845108;77.66332;;3063.1360279499304;;85.55161;;0 / 23;2375;2016-11-30 15:59:30:199
1.072;7.048;-6.589;1.4301;9.2208;-3.0237;-0.3677;-1.7161;-3.405;1.2348;-1.2558;0.108;2.5;34.94;-8.62;-1.0;122.89;-71.39;-151.43;0.0;67.076;12.845108;77.66332;;3063.1360279499304;;85.55161;;0 / 23;2382;2016-11-30 15:59:30:206
1.072;7.048;-6.589;1.4301;9.2208;-3.0237;-0.3677;-1.7161;-3.405;1.2348;-1.2558;0.108;2.5;34.94;-8.62;-1.0;122.89;-71.39;-151.43;0.0;67.076;12.845108;77.66332;;3063.1360279499304;;85.55161;;0 / 23;2385;2016-11-30 15:59:30:209
1.838;5.976;-6.895;1.3893;9.1255;-3.3097;-0.0136;-2.8466;-3.4323;1.5154;-1.3013;0.2735;2.5;35.25;-8.87;-1.19;122.89;-71.39;-151.43;0.0;67.076;12.845108;77.66332;;3063.1360279499304;;85.55161;;0 / 23;2390;2016-11-30 15:59:30:214
1.838;5.976;-6.895;1.3893;9.1255;-3.3097;-0.0136;-2.8466;-3.4323;1.5154;-1.3013;0.2735;2.5;35.25;-8.87;-1.19;122.89;-71.39;-151.43;0.0;67.076;12.845108;77.66332;;3063.1360279499304;;85.55161;;0 / 23;2394;2016-11-30 15:59:30:218
1.838;5.976;-6.895;1.3893;9.1255;-3.3097;-0.0136;-2.8466;-3.4323;1.5154;-1.3013;0.2735;2.5;35.25;-8.87;-1.19;122.89;-71.39;-151.43;0.0;67.076;12.845108;77.66332;;3063.1360279499304;;85.55161;;0 / 23;2400;2016-11-30 15:59:30:224
1.838;5.976;-6.895;1.3893;9.1255;-3.3097;-0.0136;-2.8466;-3.4323;1.5154;-1.3013;0.2735;2.5;35.25;-8.87;-1.19;122.89;-71.39;-151.43;0.0;67.076;12.845108;77.66332;;3063.1360279499304;;85.55161;;0 / 23;2405;2016-11-30 15:59:30:229
1.838;5.976;-6.895;1.3893;9.1255;-3.3097;-0.0136;-2.8466;-3.4323;1.5154;-1.3013;0.2735;2.5;35.25;-8.87;-1.19;122.89;-71.39;-151.43;0.0;67.076;12.845108;77.66332;;3063.1360279499304;;85.55161;;0 / 23;2410;2016-11-30 15:59:30:234
1.838;5.976;-6.895;1.3893;9.1255;-3.3097;-0.0136;-2.8466;-3.4323;1.5154;-1.3013;0.2735;2.5;35.25;-8.87;-1.19;122.89;-71.39;-151.43;0.0;67.076;12.845108;77.66332;;3063.1360279499304;;85.55161;;0 / 23;2414;2016-11-30 15:59:30:238
1.685;6.129;-6.742;1.362;9.0029;-3.6366;0.3133;-2.8738;-3.1054;1.7483;-1.3802;0.4028;2.5;34.75;-7.87;-3.5;120.2;-68.53;-157.23;0.0;67.076;12.845108;77.66332;;3063.1360279499304;;85.55161;;0 / 23;2419;2016-11-30 15:59:30:243
1.685;6.129;-6.742;1.362;9.0029;-3.6366;0.3133;-2.8738;-3.1054;1.7483;-1.3802;0.4028;2.5;34.75;-7.87;-3.5;120.2;-68.53;-157.23;0.0;67.076;12.845108;77.66332;;3063.1360279499304;;85.55161;;0 / 23;2425;2016-11-30 15:59:30:249
0.613;8.275;-7.354;1.362;9.0029;-3.6366;0.3133;-2.8738;-3.1054;1.7483;-1.3802;0.4028;2.5;34.75;-7.87;-3.5;120.2;-68.53;-157.23;0.0;67.076;12.845108;77.66332;;3063.1360279499304;;85.55161;;0 / 23;2430;2016-11-30 15:59:30:254
0.613;8.275;-7.354;1.3484;8.785;-4.1541;-1.0487;-1.1305;-3.0509;1.7748;-1.2861;0.561;2.5;34.69;-7.75;-5.44;120.2;-68.53;-157.23;0.0;67.076;12.845108;77.66332;;3063.1360279499304;;85.55161;;0 / 23;2435;2016-11-30 15:59:30:259
0.613;8.275;-7.354;1.3484;8.785;-4.1541;-1.0487;-1.1305;-3.0509;1.7748;-1.2861;0.561;2.5;34.69;-7.75;-5.44;120.2;-68.53;-157.23;0.0;67.076;12.845108;77.66332;;3063.1360279499304;;85.55161;;0 / 23;2440;2016-11-30 15:59:30:264
0.613;8.275;-7.354;1.3484;8.785;-4.1541;-1.0487;-1.1305;-3.0509;1.886;-1.3382;0.6117;2.5;34.69;-7.75;-5.44;120.2;-68.53;-157.23;0.0;67.076;12.845108;77.66332;;3063.1360279499304;;85.55161;;0 / 23;2444;2016-11-30 15:59:30:268
0.613;8.275;-7.354;1.3484;8.785;-4.1541;-1.0487;-1.1305;-3.0509;1.886;-1.3382;0.6117;2.5;34.69;-7.75;-5.44;120.2;-68.53;-157.23;0.0;67.076;12.845108;77.66332;;3063.1360279499304;;85.55161;;0 / 23;2449;2016-11-30 15:59:30:273
-0.919;9.653;-7.508;1.3348;8.6079;-4.5083;-1.4846;0.4358;-2.6968;1.886;-1.3382;0.6117;2.5;35.13;-8.56;-5.44;120.2;-68.53;-157.23;0.0;67.076;12.845108;77.66332;;3063.1360279499304;;85.55161;;0 / 23;2454;2016-11-30 15:59:30:278
-0.919;9.653;-7.508;1.3348;8.6079;-4.5083;-1.4846;0.4358;-2.6968;1.886;-1.3382;0.6117;2.5;35.13;-8.56;-5.44;120.2;-68.53;-157.23;0.0;67.076;12.845108;77.66332;;3063.1360279499304;;85.55161;;0 / 23;2459;2016-11-30 15:59:30:283
-0.919;9.653;-7.508;1.3348;8.5262;-4.6717;-1.185;1.1305;-2.833;1.825;-1.2918;0.6207;2.5;35.13;-8.56;-5.44;118.21;-61.36;-163.51;0.0;67.076;12.845108;77.66332;;3063.1360279499304;;85.55161;;0 / 23;2465;2016-11-30 15:59:30:289
-0.919;9.653;-7.508;1.3348;8.5262;-4.6717;-1.185;1.1305;-2.833;1.825;-1.2918;0.6207;2.5;35.13;-8.56;-5.44;118.21;-61.36;-163.51;0.0;67.076;12.845108;77.66332;;3063.1360279499304;;85.55161;;0 / 23;2470;2016-11-30 15:59:30:294
0.0;9.807;-7.968;1.3348;8.5262;-4.6717;-1.185;1.1305;-2.833;1.825;-1.2918;0.6207;2.5;35.13;-8.56;-5.44;118.21;-61.36;-163.51;0.0;67.076;12.845108;77.66332;;3063.1360279499304;;85.55161;;0 / 23;2475;2016-11-30 15:59:30:299
0.0;9.807;-7.968;1.3348;8.5262;-4.6717;-1.185;1.1305;-2.833;1.825;-1.2918;0.6207;2.5;35.13;-8.56;-5.44;118.21;-61.36;-163.51;0.0;67.076;12.845108;77.66332;;3063.1360279499304;;85.55161;;0 / 23;2480;2016-11-30 15:59:30:304
0.0;9.807;-7.968;1.3075;8.3491;-4.985;-0.8581;1.3075;-2.9828;1.6321;-1.2506;0.5184;2.5;34.94;-8.87;-5.62;118.21;-61.36;-163.51;0.0;67.076;12.845108;77.66332;;3063.1360279499304;;85.55161;;0 / 23;2485;2016-11-30 15:59:30:309
0.153;9.347;-8.121;1.3075;8.3491;-4.985;-0.8581;1.3075;-2.9828;1.6321;-1.2506;0.5184;2.5;34.94;-8.87;-5.62;118.21;-61.36;-163.51;0.0;67.076;12.845108;77.66332;;3063.1360279499304;;85.55161;;0 / 23;2490;2016-11-30 15:59:30:314
0.153;9.347;-8.121;1.3075;8.3491;-4.985;-0.8581;1.3075;-2.9828;1.6398;-1.4006;0.4516;2.5;34.94;-8.87;-5.62;118.21;-61.36;-163.51;0.0;67.076;12.845108;77.66332;;3063.1360279499304;;85.55161;;0 / 23;2495;2016-11-30 15:59:30:319
0.153;9.347;-8.121;1.3075;8.3491;-4.985;-0.8581;1.3075;-2.9828;1.6398;-1.4006;0.4516;2.5;34.94;-8.87;-5.62;118.21;-61.36;-163.51;0.0;67.076;12.845108;77.66332;;3063.1360279499304;;85.55161;;0 / 23;2500;2016-11-30 15:59:30:324
0.153;9.347;-8.121;1.2258;8.1857;-5.2574;-1.3756;0.8581;-2.7104;1.4963;-1.4358;0.3712;2.5;34.44;-9.87;-6.44;119.2;-58.31;-165.3;0.0;67.076;12.845108;77.66332;;3063.1360279499304;;85.55161;;0 / 23;2505;2016-11-30 15:59:30:329
-0.766;8.887;-7.814;1.2258;8.1857;-5.2574;-1.3756;0.8581;-2.7104;1.4963;-1.4358;0.3712;2.5;34.44;-9.87;-6.44;119.2;-58.31;-165.3;0.0;67.076;12.845108;77.66332;;3063.1360279499304;;85.55161;;0 / 23;2510;2016-11-30 15:59:30:334
-0.766;8.887;-7.814;1.2258;8.1857;-5.2574;-1.3756;0.8581;-2.7104;1.3676;-1.4603;0.3291;2.5;34.44;-9.87;-6.44;119.2;-58.31;-165.3;0.0;67.076;12.845108;77.66332;;3063.1360279499304;;85.55161;;0 / 23;2515;2016-11-30 15:59:30:339
-0.766;8.887;-7.814;1.2258;8.1857;-5.2574;-1.3756;0.8581;-2.7104;1.3676;-1.4603;0.3291;2.5;34.44;-9.87;-6.44;119.2;-58.31;-165.3;0.0;67.076;12.845108;77.66332;;3063.1360279499304;;85.55161;;0 / 23;2519;2016-11-30 15:59:30:343
-0.766;8.887;-7.814;1.076;7.9814;-5.5842;-2.3018;0.5993;-1.6208;1.1533;-1.4543;0.3259;2.5;34.44;-9.75;-6.44;119.2;-58.31;-165.3;0.0;67.076;12.845108;77.66332;;3063.1360279499304;;85.55161;;0 / 23;2524;2016-11-30 15:59:30:348
-1.685;7.814;-6.435;1.076;7.9814;-5.5842;-2.3018;0.5993;-1.6208;1.1533;-1.4543;0.3259;2.5;34.44;-9.75;-6.44;119.2;-58.31;-165.3;0.0;67.076;12.845108;77.66332;;3063.1360279499304;;85.55161;;0 / 23;2529;2016-11-30 15:59:30:353
-1.685;7.814;-6.435;1.076;7.9814;-5.5842;-2.3018;0.5993;-1.6208;1.0431;-1.5116;0.3256;2.5;34.44;-9.75;-6.44;119.2;-58.31;-165.3;0.0;53.972;12.845108;77.66332;;3063.1360279499304;;85.55161;;0 / 23;2534;2016-11-30 15:59:30:358
-1.685;7.814;-6.435;1.076;7.9814;-5.5842;-2.3018;0.5993;-1.6208;1.0431;-1.5116;0.3256;2.5;34.44;-9.75;-6.44;119.2;-58.31;-165.3;0.0;53.972;12.845108;77.66332;;3063.1360279499304;;85.55161;;0 / 23;2540;2016-11-30 15:59:30:364
-1.685;7.814;-6.435;0.967;7.886;-5.7613;-1.8796;-0.5312;0.395;0.8988;-1.4961;0.3008;2.5;34.19;-9.81;-7.25;117.43;-54.53;-169.09;0.0;53.972;12.845108;77.66332;;3063.1360279499304;;85.55161;;0 / 23;2545;2016-11-30 15:59:30:369
-1.992;7.202;-3.984;0.967;7.886;-5.7613;-1.8796;-0.5312;0.395;0.8988;-1.4961;0.3008;2.5;34.19;-9.81;-7.25;117.43;-54.53;-169.09;0.0;53.972;12.845108;77.66332;;3063.1360279499304;;85.55161;;0 / 23;2550;2016-11-30 15:59:30:374
-1.992;7.202;-3.984;0.967;7.886;-5.7613;-1.8796;-0.5312;0.395;0.7769;-1.4931;0.2212;2.5;34.19;-9.81;-7.25;117.43;-54.53;-169.09;0.0;53.972;12.845108;77.66332;;3063.1360279499304;;85.55161;;0 / 23;2555;2016-11-30 15:59:30:379
-1.992;7.202;-3.984;0.967;7.886;-5.7613;-1.8796;-0.5312;0.395;0.7769;-1.4931;0.2212;2.5;34.19;-9.81;-7.25;117.43;-54.53;-169.09;0.0;53.972;12.845108;77.66332;;3063.1360279499304;;85.55161;;0 / 23;2559;2016-11-30 15:59:30:383
-1.992;7.202;-3.984;0.8308;7.8043;-5.8839;-5.8839;0.7763;3.2824;0.574;-1.405;0.0543;2.5;34.38;-9.06;-8.37;117.43;-54.53;-169.09;0.0;53.972;12.845108;77.66332;;3063.1360279499304;;85.55161;;0 / 23;2564;2016-11-30 15:59:30:388
-7.202;14.097;-3.524;0.8308;7.8043;-5.8839;-5.8839;0.7763;3.2824;0.574;-1.405;0.0543;2.5;34.38;-9.06;-8.37;117.43;-54.53;-169.09;0.0;53.972;12.845108;77.66332;;3063.1360279499304;;85.55161;;0 / 23;2570;2016-11-30 15:59:30:394
-7.202;14.097;-3.524;0.8308;7.8043;-5.8839;-5.8839;0.7763;3.2824;0.2678;-1.6564;-0.3559;2.5;34.38;-9.06;-8.37;117.43;-54.53;-169.09;0.0;53.972;12.845108;77.66332;;3063.1360279499304;;85.55161;;0 / 23;2575;2016-11-30 15:59:30:399
-7.202;14.097;-3.524;0.8308;7.8043;-5.8839;-5.8839;0.7763;3.2824;0.2678;-1.6564;-0.3559;2.5;34.38;-9.06;-8.37;117.43;-54.53;-169.09;0.0;53.972;12.845108;77.66332;;3063.1360279499304;;85.55161;;0 / 23;2580;2016-11-30 15:59:30:404
-7.202;14.097;-3.524;0.572;7.8043;-5.9248;-8.2266;11.0459;1.185;-0.0965;-1.7513;-0.6234;2.5;35.25;-8.44;-9.25;115.36;-52.71;-171.96;0.0;53.972;12.845108;77.66332;;3063.1360279499304;;85.55161;;0 / 23;2584;2016-11-30 15:59:30:408
-5.669;19.46;-5.363;0.572;7.8043;-5.9248;-8.2266;11.0459;1.185;-0.0965;-1.7513;-0.6234;2.5;35.25;-8.44;-9.25;115.36;-52.71;-171.96;0.0;53.972;12.845108;77.66332;;3063.1360279499304;;85.55161;;0 / 23;2590;2016-11-30 15:59:30:414
-5.669;19.46;-5.363;0.572;7.8043;-5.9248;-8.2266;11.0459;1.185;-0.3883;-1.7734;-0.7808;2.5;35.25;-8.44;-9.25;115.36;-52.71;-171.96;0.0;53.972;12.845108;77.66332;;3063.1360279499304;;85.55161;;0 / 23;2595;2016-11-30 15:59:30:419
-5.669;19.46;-5.363;0.572;7.8043;-5.9248;-8.2266;11.0459;1.185;-0.3883;-1.7734;-0.7808;2.5;35.25;-8.44;-9.25;115.36;-52.71;-171.96;0.0;53.972;12.845108;77.66332;;3063.1360279499304;;85.55161;;0 / 23;2599;2016-11-30 15:59:30:423
-5.669;19.46;-5.363;0.2588;7.8588;-5.8567;-3.623;11.6044;1.1168;-0.3883;-1.7734;-0.7808;2.5;34.81;-8.44;-9.37;115.36;-52.71;-171.96;0.0;53.972;12.845108;77.66332;;3063.1360279499304;;85.55161;;0 / 23;2604;2016-11-30 15:59:30:428
-5.669;19.46;-5.363;0.2588;7.8588;-5.8567;-3.623;11.6044;1.1168;-0.3883;-1.7734;-0.7808;2.5;34.81;-8.44;-9.37;115.36;-52.71;-171.96;0.0;53.972;12.845108;77.66332;;3063.1360279499304;;85.55161;;0 / 23;2609;2016-11-30 15:59:30:433
-1.838;15.016;-4.903;0.2588;7.8588;-5.8567;-3.623;11.6044;1.1168;-0.9046;-1.6261;-0.7483;2.5;34.81;-8.44;-9.37;115.36;-52.71;-171.96;0.0;53.972;12.845108;77.66332;;3063.1360279499304;;85.55161;;0 / 23;2615;2016-11-30 15:59:30:439
-1.838;15.016;-4.903;0.2588;7.8588;-5.8567;-3.623;11.6044;1.1168;-0.9046;-1.6261;-0.7483;2.5;34.81;-8.44;-9.37;115.36;-52.71;-171.96;0.0;53.972;12.845108;77.66332;;3063.1360279499304;;85.55161;;0 / 23;2620;2016-11-30 15:59:30:444
-1.838;15.016;-4.903;-0.0272;7.9678;-5.7204;-1.9613;2.9147;1.5936;-0.928;-1.5332;-0.6951;2.5;34.38;-8.62;-10.25;113.52;-53.28;-177.47;0.0;53.972;12.845108;77.66332;;3063.1360279499304;;85.55161;;0 / 23;2625;2016-11-30 15:59:30:449
-3.371;1.379;0.0;-0.0272;7.9678;-5.7204;-1.9613;2.9147;1.5936;-0.928;-1.5332;-0.6951;2.5;34.38;-8.62;-10.25;113.52;-53.28;-177.47;0.0;53.972;12.845108;77.66332;;3063.1360279499304;;85.55161;;0 / 23;2630;2016-11-30 15:59:30:454
-3.371;1.379;0.0;-0.0272;7.9678;-5.7204;-1.9613;2.9147;1.5936;-0.8784;-1.4609;-0.6739;2.5;34.38;-8.62;-10.25;113.52;-53.28;-177.47;0.0;53.972;12.845108;77.66332;;3063.1360279499304;;85.55161;;0 / 23;2634;2016-11-30 15:59:30:458
-3.371;1.379;0.0;-0.0272;7.9678;-5.7204;-1.9613;2.9147;1.5936;-0.8784;-1.4609;-0.6739;2.5;34.38;-8.62;-10.25;113.52;-53.28;-177.47;0.0;53.972;12.845108;77.66332;;3063.1360279499304;;85.55161;;0 / 23;2640;2016-11-30 15:59:30:464
-3.371;1.379;0.0;-0.4903;8.1176;-5.4889;-4.4129;-11.332;7.4774;-1.0352;-1.6051;-1.1192;2.5;34.0;-9.19;-10.25;113.52;-53.28;-177.47;0.0;53.972;12.845108;77.66332;;3063.1360279499304;;85.55161;;0 / 23;2645;2016-11-30 15:59:30:469
-4.597;-2.758;2.604;-0.4903;8.1176;-5.4889;-4.4129;-11.332;7.4774;-1.0352;-1.6051;-1.1192;2.5;34.0;-9.19;-10.25;113.52;-53.28;-177.47;0.0;53.972;12.845108;77.66332;;3063.1360279499304;;85.55161;;0 / 23;2649;2016-11-30 15:59:30:473
-4.597;-2.758;2.604;-0.4903;8.1176;-5.4889;-4.4129;-11.332;7.4774;-1.0352;-1.6051;-1.1192;2.5;34.0;-9.19;-10.25;113.52;-53.28;-177.47;0.0;53.972;12.845108;77.66332;;3063.1360279499304;;85.55161;;0 / 23;2654;2016-11-30 15:59:30:478
-4.597;-2.758;2.604;-0.4903;8.1176;-5.4889;-4.4129;-11.332;7.4774;-1.0352;-1.6051;-1.1192;2.5;34.0;-9.19;-10.25;113.52;-53.28;-177.47;0.0;53.972;12.845108;77.66332;;3063.1360279499304;;85.55161;;0 / 23;2659;2016-11-30 15:59:30:483
-4.597;-2.758;2.604;-0.6538;8.1585;-5.4072;-3.0237;-9.5341;8.0086;-1.1192;-1.5839;-1.2681;2.5;34.19;-10.25;-8.81;106.9;-55.83;174.9;0.0;53.972;12.845108;77.66332;;3063.1360279499304;;85.55161;;0 / 23;2664;2016-11-30 15:59:30:488
1.685;6.742;0.612;-0.6538;8.1585;-5.4072;-3.0237;-9.5341;8.0086;-1.1192;-1.5839;-1.2681;2.5;34.19;-10.25;-8.81;106.9;-55.83;174.9;0.0;53.972;12.845108;77.66332;;3063.1360279499304;;85.55161;;0 / 23;2670;2016-11-30 15:59:30:494
1.685;6.742;0.612;-0.6538;8.1585;-5.4072;-3.0237;-9.5341;8.0086;-1.2362;-1.5061;-1.2913;2.5;34.19;-10.25;-8.81;106.9;-55.83;174.9;0.0;53.972;12.845108;77.66332;;3063.1360279499304;;85.55161;;0 / 23;2675;2016-11-30 15:59:30:499
1.685;6.742;0.612;-0.6538;8.1585;-5.4072;-3.0237;-9.5341;8.0086;-1.2362;-1.5061;-1.2913;2.5;34.19;-10.25;-8.81;106.9;-55.83;174.9;0.0;53.972;12.845108;77.66332;;3063.1360279499304;;85.55161;;0 / 23;2680;2016-11-30 15:59:30:504
5.363;10.879;-0.612;-0.9806;8.2674;-5.1893;4.0452;0.1634;5.1893;-1.2823;-1.3188;-1.1159;2.5;33.94;-10.44;-8.62;106.9;-55.83;174.9;0.0;53.972;12.845108;77.66332;;3063.1360279499304;;85.55161;;0 / 23;2685;2016-11-30 15:59:30:509
5.363;10.879;-0.612;-0.9806;8.2674;-5.1893;4.0452;0.1634;5.1893;-1.2823;-1.3188;-1.1159;2.5;33.94;-10.44;-8.62;106.9;-55.83;174.9;0.0;53.972;12.845108;77.66332;;3063.1360279499304;;85.55161;;0 / 23;2689;2016-11-30 15:59:30:513
5.363;10.879;-0.612;-1.1713;8.4036;-4.9169;7.4502;4.3176;4.767;-1.7832;-0.6043;-0.4734;2.5;34.19;-10.75;-7.19;106.9;-55.83;174.9;0.0;53.972;12.845108;77.66332;;3063.1360279499304;;85.55161;;0 / 23;2694;2016-11-30 15:59:30:518
5.517;13.332;-0.152;-1.1713;8.4036;-4.9169;7.4502;4.3176;4.767;-1.7832;-0.6043;-0.4734;2.5;34.19;-10.75;-7.19;106.9;-55.83;174.9;0.0;53.972;12.845108;77.66332;;3063.1360279499304;;85.55161;;0 / 23;2700;2016-11-30 15:59:30:524
5.517;13.332;-0.152;-1.1713;8.4036;-4.9169;7.4502;4.3176;4.767;-1.7832;-0.6043;-0.4734;2.5;34.19;-10.75;-7.19;106.9;-55.83;174.9;0.0;53.972;12.845108;77.66332;;3063.1360279499304;;85.55161;;0 / 23;2705;2016-11-30 15:59:30:529
